participant_id,session_id,task,date,time,marker,alien_speed,ball_colour,bet_scaling,confidence,exploded,n_hits,outcome_interval,pink_bet,purple_bet,response,rt,score,trial,trial_outcome,trial_type,V_RW,PE_RW
P001,1,Cannonball_MF_reversal,2026-02-04,14:39:33.515000,trial_1_trial,90.0,grey,-999,0.5,0,1,1250,-999,-999,1,1116.69999999999,100,1,1,trial,0.0,1.0
P001,1,Cannonball_MF_reversal,2026-02-04,14:39:36.320000,trial_2_trial,90.0,grey,-999,0.5,1,1,1217,-999,-999,1,1600.0,50,2,0,trial,0.11718303063427844,-0.11718303063427844
P001,1,Cannonball_MF_reversal,2026-02-04,14:39:39.269000,trial_3_trial,90.0,grey,-999,0.5,0,2,1233,-999,-999,2,1083.3,150,3,1,trial,0.1034511679656442,0.8965488320343558
P001,1,Cannonball_MF_reversal,2026-02-04,14:39:41.667000,trial_4_trial,90.0,grey,-999,0.5,0,2,1217,-999,-999,2,1616.6,150,4,1,trial,0.20851147721505267,0.7914885227849473
P001,1,Cannonball_MF_reversal,2026-02-04,14:39:45.467000,trial_5_trial,90.0,grey,-999,0.5,0,3,1233,-999,-999,2,1083.3,250,5,1,trial,0.30126050102724095,0.6987394989727591
P001,1,Cannonball_MF_reversal,2026-02-04,14:39:47.939000,trial_6_trial,90.0,grey,-999,0.5,1,3,1234,-999,-999,2,2099.69999999999,200,6,0,trial,0.38314091314074616,-0.38314091314074616
P001,1,Cannonball_MF_reversal,2026-02-04,14:39:51.399000,trial_7_trial,90.0,grey,-999,0.5,1,3,1233,-999,-999,1,1266.8,150,7,0,trial,0.3382432997789287,-0.3382432997789287
P001,1,Cannonball_MF_reversal,2026-02-04,14:39:54.036000,trial_8_trial,90.0,grey,-999,0.5,0,4,1217,-999,-999,2,749.899999999994,250,8,1,trial,0.29860692481909507,0.701393075180905
P001,1,Cannonball_MF_reversal,2026-02-04,14:39:56.100000,trial_9_trial,90.0,grey,-999,0.5,0,5,1217,-999,-999,2,1499.8,350,9,1,trial,0.3807982910346898,0.6192017089653101
P001,1,Cannonball_MF_reversal,2026-02-04,14:39:59.353000,trial_10_trial,90.0,grey,-999,0.5,1,5,1233,-999,-999,1,1366.5,300,10,0,trial,0.45335822386516933,-0.45335822386516933
P001,1,Cannonball_MF_reversal,2026-02-04,14:40:02.086000,trial_11_trial,90.0,grey,-999,0.5,0,6,1217,-999,-999,2,716.599999999991,400,11,1,trial,0.4002323332296751,0.5997676667703249
P001,1,Cannonball_MF_reversal,2026-02-04,14:40:04.183000,trial_12_trial,90.0,grey,-999,0.5,1,6,1217,-999,-999,1,1766.4,350,12,0,trial,0.4705149260982718,-0.4705149260982718
P001,1,Cannonball_MF_reversal,2026-02-04,14:40:07.301000,trial_13_trial,90.0,grey,-999,0.5,0,7,1217,-999,-999,2,600.100000000005,450,13,1,trial,0.41537856109941274,0.5846214389005873
P001,1,Cannonball_MF_reversal,2026-02-04,14:40:09.216000,trial_14_trial,90.0,grey,-999,0.5,1,7,1217,-999,-999,1,1783.3,400,14,0,trial,0.4838862730835562,-0.4838862730835562
P001,1,Cannonball_MF_reversal,2026-02-04,14:40:12.352000,trial_15_trial,90.0,grey,-999,0.5,0,8,1233,-999,-999,2,700.0,500,15,1,trial,0.427183013121299,0.572816986878701
P001,1,Cannonball_MF_reversal,2026-02-04,14:40:14.439000,trial_16_trial,90.0,grey,-999,0.5,1,8,1217,-999,-999,2,1681.3,450,16,0,trial,0.4943074436425409,-0.4943074436425409
P001,1,Cannonball_MF_reversal,2026-02-04,14:40:17.465000,trial_17_trial,90.0,grey,-999,0.5,1,8,1216,-999,-999,1,783.300000000002,400,17,0,trial,0.4363829993314252,-0.4363829993314252
P001,1,Cannonball_MF_reversal,2026-02-04,14:40:19.598000,trial_18_trial,90.0,grey,-999,0.5,0,9,1217,-999,-999,2,983.300000000002,500,18,1,trial,0.3852463169524925,0.6147536830475075
P001,1,Cannonball_MF_reversal,2026-02-04,14:40:21.964000,trial_19_trial,90.0,grey,-999,0.5,0,10,1233,-999,-999,2,1450.19999999999,600,19,1,trial,0.4572850166255841,0.5427149833744159
P001,1,Cannonball_MF_reversal,2026-02-04,14:40:25.081000,trial_20_trial,90.0,grey,-999,0.5,0,11,1217,-999,-999,2,1449.89999999999,700,20,1,trial,0.5208820031480301,0.4791179968519699
P001,1,Cannonball_MF_reversal,2026-02-04,14:40:27.882000,trial_21_trial,90.0,grey,-999,0.5,0,12,1233,-999,-999,2,1733.3,800,21,1,trial,0.5770265020505686,0.4229734979494314
P001,1,Cannonball_MF_reversal,2026-02-04,14:40:31.049000,trial_22_trial,90.0,grey,-999,0.5,0,13,1233,-999,-999,2,1483.19999999999,900,22,1,trial,0.6265918184182647,0.3734081815817353
P001,1,Cannonball_MF_reversal,2026-02-04,14:40:33.914000,trial_23_trial,90.0,grey,-999,0.5,1,13,1233,-999,-999,1,1550.0,850,23,0,trial,0.6703489207996474,-0.6703489207996474
P001,1,Cannonball_MF_reversal,2026-02-04,14:40:36.832000,trial_24_trial,90.0,grey,-999,0.5,0,14,1219,-999,-999,2,666.699999999997,950,24,1,trial,0.5917954026779269,0.40820459732207315
P001,1,Cannonball_MF_reversal,2026-02-04,14:40:38.816000,trial_25_trial,102.5,grey,-999,0.5,0,15,1233,-999,-999,2,1750.1,1050,25,1,trial,0.6396300545109727,0.36036994548902734
P001,1,Cannonball_MF_reversal,2026-02-04,14:40:41.854000,trial_26_trial,102.5,grey,-999,0.5,0,16,1217,-999,-999,2,1349.9,1150,26,1,trial,0.6818592968728866,0.3181407031271134
P001,1,Cannonball_MF_reversal,2026-02-04,14:40:44.464000,trial_27_trial,102.5,grey,-999,0.5,0,17,1233,-999,-999,2,1483.30000000001,1250,27,1,trial,0.719139988633442,0.280860011366558
P001,1,Cannonball_MF_reversal,2026-02-04,14:40:47.297000,trial_28_trial,102.5,grey,-999,0.5,0,18,1233,-999,-999,2,1516.29999999998,1350,28,1,trial,0.7520520159493531,0.24794798405064689
P001,1,Cannonball_MF_reversal,2026-02-04,14:40:50.164000,trial_29_trial,102.5,grey,-999,0.5,1,18,1233,-999,-999,2,1483.20000000001,1300,29,0,trial,0.7811073121600677,-0.7811073121600677
P001,1,Cannonball_MF_reversal,2026-02-04,14:40:53.013000,trial_30_trial,102.5,grey,-999,0.5,0,19,1233,-999,-999,2,433.399999999994,1400,30,1,trial,0.6895747900705556,0.31042520992944445
P001,1,Cannonball_MF_reversal,2026-02-04,14:40:54.849000,trial_31_trial,102.5,grey,-999,0.5,0,20,1233,-999,-999,2,1433.19999999998,1500,31,1,trial,0.7259513569553699,0.27404864304463006
P001,1,Cannonball_MF_reversal,2026-02-04,14:40:58.030000,trial_32_trial,102.5,grey,-999,0.5,0,20,1233,-999,-999,2,1349.70000000001,1500,32,1,trial,0.7580652074885512,0.24193479251144878
P001,1,Cannonball_MF_reversal,2026-02-04,14:41:01.563000,trial_33_trial,102.5,grey,-999,0.5,0,21,1233,-999,-999,2,150.0,1600,33,1,trial,0.7864158596909181,0.2135841403090819
P001,1,Cannonball_MF_reversal,2026-02-04,14:41:03.081000,trial_34_trial,102.5,grey,-999,0.5,1,21,1234,-999,-999,2,1533.1,1550,34,0,trial,0.8114442965477533,-0.8114442965477533
P001,1,Cannonball_MF_reversal,2026-02-04,14:41:05.979000,trial_35_trial,102.5,grey,-999,0.5,0,22,1216,-999,-999,2,1000.0,1650,35,1,trial,0.7163567946873874,0.28364320531261256
P001,1,Cannonball_MF_reversal,2026-02-04,14:41:08.301000,trial_36_trial,102.5,grey,-999,0.5,0,23,1250,-999,-999,2,1516.5,1750,36,1,trial,0.7495949651047402,0.2504050348952598
P001,1,Cannonball_MF_reversal,2026-02-04,14:41:11.098000,trial_37_trial,102.5,grey,-999,0.5,0,24,1233,-999,-999,2,1333.39999999999,1850,37,1,trial,0.778938185979849,0.22106181402015102
P001,1,Cannonball_MF_reversal,2026-02-04,14:41:13.730000,trial_38_trial,102.5,grey,-999,0.5,0,24,1233,-999,-999,2,1116.29999999998,1850,38,1,trial,0.8048428793042415,0.19515712069575852
P001,1,Cannonball_MF_reversal,2026-02-04,14:41:17.029000,trial_39_trial,102.5,grey,-999,0.5,0,25,1217,-999,-999,2,66.7000000000116,1950,39,1,trial,0.8277119821572301,0.17228801784276992
P001,1,Cannonball_MF_reversal,2026-02-04,14:41:18.480000,trial_40_trial,102.5,grey,-999,0.5,0,25,1233,-999,-999,2,1349.70000000001,1950,40,1,trial,0.8479012142300185,0.15209878576998148
P001,1,Cannonball_MF_reversal,2026-02-04,14:41:22.097000,trial_41_trial,102.5,grey,-999,0.5,1,25,1233,-999,-999,2,133.299999999988,1900,41,0,trial,0.8657246109023388,-0.8657246109023388
P001,1,Cannonball_MF_reversal,2026-02-04,14:41:23.595000,trial_42_trial,102.5,grey,-999,0.5,1,25,1233,-999,-999,2,766.699999999982,1850,42,0,trial,0.7642763773021212,-0.7642763773021212
P001,1,Cannonball_MF_reversal,2026-02-04,14:41:25.729000,trial_43_trial,102.5,grey,-999,0.5,1,25,1233,-999,-999,2,983.200000000011,1800,43,0,trial,0.6747161551676714,-0.6747161551676714
P001,1,Cannonball_MF_reversal,2026-02-04,14:41:28.079000,trial_44_trial,102.5,grey,-999,0.5,1,25,1233,-999,-999,1,699.899999999994,1750,44,0,trial,0.5956508712872155,-0.5956508712872155
P001,1,Cannonball_MF_reversal,2026-02-04,14:41:30.146000,trial_45_trial,102.5,grey,-999,0.5,1,25,1217,-999,-999,2,733.299999999988,1700,45,0,trial,0.5258506969898311,-0.5258506969898311
P001,1,Cannonball_MF_reversal,2026-02-04,14:41:32.231000,trial_46_trial,102.5,grey,-999,0.5,1,25,1233,-999,-999,2,1049.89999999999,1650,46,0,trial,0.4642299186554151,-0.4642299186554151
P001,1,Cannonball_MF_reversal,2026-02-04,14:41:34.646000,trial_47_trial,102.5,grey,-999,0.5,0,26,1233,-999,-999,1,616.700000000011,1750,47,1,trial,0.409830049876269,0.590169950123731
P001,1,Cannonball_MF_reversal,2026-02-04,14:41:36.631000,trial_48_trial,102.5,grey,-999,0.5,0,27,1217,-999,-999,1,1583.30000000001,1850,48,1,trial,0.4789879532210487,0.5210120467789513
P001,1,Cannonball_MF_reversal,2026-02-04,14:41:39.645000,trial_49_trial,102.5,grey,-999,0.5,0,28,1234,-999,-999,1,1433.29999999998,1950,49,1,trial,0.5400417238595747,0.4599582761404253
P001,1,Cannonball_MF_reversal,2026-02-04,14:41:42.480000,trial_50_trial,115.0,grey,-999,0.5,0,29,1234,-999,-999,1,1399.79999999998,2050,50,1,trial,0.5939410286230281,0.4060589713769719
P001,1,Cannonball_MF_reversal,2026-02-04,14:41:45.251000,trial_51_trial,115.0,grey,-999,0.5,0,29,1216,-999,-999,1,1433.5,2050,51,1,trial,0.6415242495052194,0.35847575049478064
P001,1,Cannonball_MF_reversal,2026-02-04,14:41:48.878000,trial_52_trial,115.0,grey,-999,0.5,1,29,1236,-999,-999,2,350.0,2000,52,0,trial,0.6835315243570952,-0.6835315243570952
P001,1,Cannonball_MF_reversal,2026-02-04,14:41:50.597000,trial_53_trial,115.0,grey,-999,0.5,0,30,1217,-999,-999,1,333.100000000005,2100,53,1,trial,0.6034332287988626,0.39656677120113737
P001,1,Cannonball_MF_reversal,2026-02-04,14:41:52.295000,trial_54_trial,115.0,grey,-999,0.5,0,30,1233,-999,-999,1,1416.59999999997,2100,54,1,trial,0.6499041248970624,0.3500958751029376
P001,1,Cannonball_MF_reversal,2026-02-04,14:41:55.911000,trial_55_trial,115.0,grey,-999,0.5,0,31,1250,-999,-999,1,1466.6,2200,55,1,trial,0.6909294205541845,0.3090705794458155
P001,1,Cannonball_MF_reversal,2026-02-04,14:41:59.119000,trial_56_trial,115.0,grey,-999,0.5,1,31,1233,-999,-999,1,1349.70000000001,2150,56,0,trial,0.7271472477335377,-0.7271472477335377
P001,1,Cannonball_MF_reversal,2026-02-04,14:42:01.826000,trial_57_trial,115.0,grey,-999,0.5,0,32,1233,-999,-999,1,1033.39999999999,2250,57,1,trial,0.6419379295267473,0.35806207047325267
P001,1,Cannonball_MF_reversal,2026-02-04,14:42:04.661000,trial_58_trial,115.0,grey,-999,0.5,0,33,1233,-999,-999,1,1399.89999999999,2350,58,1,trial,0.6838967280999877,0.3161032719000123
P001,1,Cannonball_MF_reversal,2026-02-04,14:42:07.376000,trial_59_trial,115.0,grey,-999,0.5,0,34,1233,-999,-999,1,1333.20000000001,2450,59,1,trial,0.7209386674946425,0.2790613325053575
P001,1,Cannonball_MF_reversal,2026-02-04,14:42:10.059000,trial_60_trial,115.0,grey,-999,0.5,0,35,1233,-999,-999,1,1166.39999999999,2550,60,1,trial,0.7536399201704604,0.24636007982953956
P001,1,Cannonball_MF_reversal,2026-02-04,14:42:12.528000,trial_61_trial,115.0,grey,-999,0.5,0,36,1233,-999,-999,1,1199.89999999999,2650,61,1,trial,0.7825091409521887,0.2174908590478113
P001,1,Cannonball_MF_reversal,2026-02-04,14:42:15.044000,trial_62_trial,115.0,grey,-999,0.5,0,37,1217,-999,-999,1,1183.19999999998,2750,62,1,trial,0.8079953789506639,0.19200462104933613
P001,1,Cannonball_MF_reversal,2026-02-04,14:42:17.627000,trial_63_trial,115.0,grey,-999,0.5,0,38,1234,-999,-999,1,1249.80000000001,2850,63,1,trial,0.8304950623410112,0.16950493765898877
P001,1,Cannonball_MF_reversal,2026-02-04,14:42:20.227000,trial_64_trial,115.0,grey,-999,0.5,0,39,1233,-999,-999,1,916.899999999994,2950,64,1,trial,0.850358164643366,0.149641835356634
P001,1,Cannonball_MF_reversal,2026-02-04,14:42:22.511000,trial_65_trial,127.5,grey,-999,0.5,0,40,1217,-999,-999,1,1416.5,3050,65,1,trial,0.8678936484201321,0.13210635157986794
P001,1,Cannonball_MF_reversal,2026-02-04,14:42:25.250000,trial_66_trial,127.5,grey,-999,0.5,0,41,1217,-999,-999,1,1316.40000000002,3150,66,1,trial,0.8833742710642984,0.11662572893570156
P001,1,Cannonball_MF_reversal,2026-02-04,14:42:27.860000,trial_67_trial,127.5,grey,-999,0.5,1,41,1217,-999,-999,2,1399.89999999999,3100,67,0,trial,0.8970408274309158,-0.8970408274309158
P001,1,Cannonball_MF_reversal,2026-02-04,14:42:30.608000,trial_68_trial,127.5,grey,-999,0.5,1,41,1250,-999,-999,1,866.5,3050,68,0,trial,0.7919228646698804,-0.7919228646698804
P001,1,Cannonball_MF_reversal,2026-02-04,14:42:32.860000,trial_69_trial,127.5,grey,-999,0.5,0,42,1217,-999,-999,1,1183.20000000001,3150,69,1,trial,0.6991229433592843,0.30087705664071573
P001,1,Cannonball_MF_reversal,2026-02-04,14:42:35.326000,trial_70_trial,127.5,grey,-999,0.5,0,43,1233,-999,-999,1,1433.30000000001,3250,70,1,trial,0.7343806287047648,0.26561937129523516
P001,1,Cannonball_MF_reversal,2026-02-04,14:42:38.077000,trial_71_trial,127.5,grey,-999,0.5,0,44,1250,-999,-999,1,1317.0,3350,71,1,trial,0.7655067116283122,0.2344932883716878
P001,1,Cannonball_MF_reversal,2026-02-04,14:42:41.091000,trial_72_trial,127.5,grey,-999,0.5,0,45,1233,-999,-999,1,1066.59999999997,3450,72,1,trial,0.7929853458231043,0.20701465417689568
P001,1,Cannonball_MF_reversal,2026-02-04,14:42:43.892000,trial_73_trial,127.5,grey,-999,0.5,1,45,1233,-999,-999,1,999.899999999994,3400,73,0,trial,0.81724395038526,-0.81724395038526
P001,1,Cannonball_MF_reversal,2026-02-04,14:42:46.258000,trial_74_trial,127.5,grey,-999,0.5,0,46,1233,-999,-999,1,883.399999999994,3500,74,1,trial,0.7214768275115854,0.2785231724884146
P001,1,Cannonball_MF_reversal,2026-02-04,14:42:48.441000,trial_75_trial,127.5,grey,-999,0.5,0,47,1217,-999,-999,1,1066.5,3600,75,1,trial,0.7541150169656516,0.24588498303434836
P001,1,Cannonball_MF_reversal,2026-02-04,14:42:51.325000,trial_76_trial,127.5,grey,-999,0.5,1,47,1233,-999,-999,1,1283.39999999999,3550,76,0,trial,0.7829285644650747,-0.7829285644650747
P001,1,Cannonball_MF_reversal,2026-02-04,14:42:53.974000,trial_77_trial,127.5,grey,-999,0.5,0,48,1233,-999,-999,1,816.899999999994,3650,77,1,trial,0.6911826225109122,0.3088173774890878
P001,1,Cannonball_MF_reversal,2026-02-04,14:42:56.077000,trial_78_trial,127.5,grey,-999,0.5,0,48,1217,-999,-999,1,1299.79999999998,3650,78,1,trial,0.7273707787176136,0.2726292212823864
P001,1,Cannonball_MF_reversal,2026-02-04,14:42:59.557000,trial_79_trial,127.5,grey,-999,0.5,1,48,1233,-999,-999,1,200.099999999976,3600,79,0,trial,0.759318297106947,-0.759318297106947
P001,1,Cannonball_MF_reversal,2026-02-04,14:43:01.127000,trial_80_trial,127.5,grey,-999,0.5,0,49,1217,-999,-999,1,766.600000000034,3700,80,1,trial,0.6703390778358955,0.3296609221641045
P001,1,Cannonball_MF_reversal,2026-02-04,14:43:03.678000,trial_81_trial,127.5,grey,-999,0.5,0,50,1217,-999,-999,1,1499.90000000002,3800,81,1,trial,0.7089697437767762,0.29103025622322376
P001,1,Cannonball_MF_reversal,2026-02-04,14:43:06.491000,trial_82_trial,127.5,grey,-999,0.5,0,51,1216,-999,-999,1,1216.60000000003,3900,82,1,trial,0.7430735512072841,0.25692644879271587
P001,1,Cannonball_MF_reversal,2026-02-04,14:43:09.456000,trial_83_trial,140.0,grey,-999,0.5,0,52,1233,-999,-999,1,766.599999999976,4000,83,1,trial,0.7731809711269173,0.2268190288730827
P001,1,Cannonball_MF_reversal,2026-02-04,14:43:11.958000,trial_84_trial,140.0,grey,-999,0.5,0,53,1234,-999,-999,1,1066.39999999996,4100,84,1,trial,0.799760312335789,0.20023968766421096
P001,1,Cannonball_MF_reversal,2026-02-04,14:43:14.290000,trial_85_trial,140.0,grey,-999,0.5,0,54,1233,-999,-999,1,1099.90000000002,4200,85,1,trial,0.8232250057895426,0.1767749942104574
P001,1,Cannonball_MF_reversal,2026-02-04,14:43:17.212000,trial_86_trial,140.0,grey,-999,0.5,1,54,1233,-999,-999,1,933.0,4150,86,0,trial,0.843940035351481,-0.843940035351481
P001,1,Cannonball_MF_reversal,2026-02-04,14:43:19.506000,trial_87_trial,140.0,grey,-999,0.5,1,54,1217,-999,-999,1,716.599999999976,4100,87,0,trial,0.7450445843353943,-0.7450445843353943
P001,1,Cannonball_MF_reversal,2026-02-04,14:43:21.573000,trial_88_trial,140.0,grey,-999,0.5,1,54,1233,-999,-999,2,966.5,4050,88,0,trial,0.6577380019853165,-0.6577380019853165
P001,1,Cannonball_MF_reversal,2026-02-04,14:43:23.905000,trial_89_trial,140.0,grey,-999,0.5,1,54,1250,-999,-999,2,783.299999999988,4000,89,0,trial,0.5806622695493421,-0.5806622695493421
P001,1,Cannonball_MF_reversal,2026-02-04,14:43:26.073000,trial_90_trial,140.0,grey,-999,0.5,0,54,1250,-999,-999,1,1083.09999999997,4000,90,1,trial,0.5126185050285719,0.48738149497142813
P001,1,Cannonball_MF_reversal,2026-02-04,14:43:29.360000,trial_91_trial,140.0,grey,-999,0.5,0,55,1233,-999,-999,1,166.799999999988,4100,91,1,trial,0.5697313456843891,0.4302686543156109
P001,1,Cannonball_MF_reversal,2026-02-04,14:43:30.855000,trial_92_trial,140.0,grey,-999,0.5,1,55,1233,-999,-999,1,0.0,4050,92,0,trial,0.6201515305840251,-0.6201515305840251
P001,1,Cannonball_MF_reversal,2026-02-04,14:43:32.222000,trial_93_trial,140.0,grey,-999,0.5,1,55,1217,-999,-999,1,66.7000000000116,4000,93,0,trial,0.5474802947777025,-0.5474802947777025
P001,1,Cannonball_MF_reversal,2026-02-04,14:43:33.639000,trial_94_trial,125.0,grey,-999,0.5,1,55,1233,-999,-999,2,950.0,3950,94,0,trial,0.48332489462310324,-0.48332489462310324
P001,1,Cannonball_MF_reversal,2026-02-04,14:43:35.955000,trial_95_trial,137.5,grey,-999,0.5,0,56,1250,-999,-999,1,700.0,4050,95,1,trial,0.42668741869017474,0.5733125813098252
P001,1,Cannonball_MF_reversal,2026-02-04,14:43:38.490000,trial_96_trial,137.5,grey,-999,0.5,1,56,1234,-999,-999,1,1116.5,4000,96,0,trial,0.4938699244688212,-0.4938699244688212
P001,1,Cannonball_MF_reversal,2026-02-04,14:43:40.972000,trial_97_trial,122.5,grey,-999,0.5,1,56,1233,-999,-999,2,633.5,3950,97,0,trial,0.4359967499804426,-0.4359967499804426
P001,1,Cannonball_MF_reversal,2026-02-04,14:43:42.972000,trial_98_trial,122.5,grey,-999,0.5,1,56,1233,-999,-999,1,900.100000000034,3900,98,0,trial,0.38490532947103856,-0.38490532947103856
P001,1,Cannonball_MF_reversal,2026-02-04,14:43:45.238000,trial_99_trial,122.5,grey,-999,0.5,1,56,1217,-999,-999,1,716.599999999976,3850,99,0,trial,0.3398009564563368,-0.3398009564563368
P001,1,Cannonball_MF_reversal,2026-02-04,14:43:47.309000,trial_100_trial,122.5,grey,-999,0.5,0,57,1217,-999,-999,2,600.0,3950,100,1,trial,0.29998205056635674,0.7000179494336433
P001,1,Cannonball_MF_reversal,2026-02-04,14:43:49.274000,trial_101_trial,122.5,grey,-999,0.5,1,57,1250,-999,-999,2,1466.60000000003,3900,101,0,trial,0.38201227537938415,-0.38201227537938415
P001,1,Cannonball_MF_reversal,2026-02-04,14:43:52.123000,trial_102_trial,122.5,grey,-999,0.5,1,57,1233,-999,-999,2,816.899999999965,3850,102,0,trial,0.33724691921093136,-0.33724691921093136
P001,1,Cannonball_MF_reversal,2026-02-04,14:43:54.305000,trial_103_trial,122.5,grey,-999,0.5,0,58,1233,-999,-999,2,783.5,3950,103,1,trial,0.29772730314572077,0.7022726968542792
P001,1,Cannonball_MF_reversal,2026-02-04,14:43:56.838000,trial_104_trial,122.5,grey,-999,0.5,1,58,1233,-999,-999,1,1299.79999999998,3900,104,0,trial,0.3800217460948131,-0.3800217460948131
P001,1,Cannonball_MF_reversal,2026-02-04,14:43:59.505000,trial_105_trial,122.5,grey,-999,0.5,1,58,1233,-999,-999,2,566.699999999953,3850,105,0,trial,0.33548964618049265,-0.33548964618049265
P001,1,Cannonball_MF_reversal,2026-02-04,14:44:01.441000,trial_106_trial,122.5,grey,-999,0.5,1,58,1217,-999,-999,1,799.799999999988,3800,106,0,trial,0.29617595269464075,-0.29617595269464075
P001,1,Cannonball_MF_reversal,2026-02-04,14:44:03.589000,trial_107_trial,122.5,grey,-999,0.5,0,59,1217,-999,-999,2,566.799999999988,3900,107,1,trial,0.26146915695688805,0.7385308430431119
P001,1,Cannonball_MF_reversal,2026-02-04,14:44:05.520000,trial_108_trial,135.0,grey,-999,0.5,0,60,1217,-999,-999,2,1283.20000000001,4000,108,1,trial,0.3480124393615685,0.6519875606384316
P001,1,Cannonball_MF_reversal,2026-02-04,14:44:08.537000,trial_109_trial,135.0,grey,-999,0.5,0,61,1216,-999,-999,2,1116.79999999998,4100,109,1,trial,0.4244143176530303,0.5755856823469697
P001,1,Cannonball_MF_reversal,2026-02-04,14:44:10.922000,trial_110_trial,135.0,grey,-999,0.5,0,62,1217,-999,-999,2,1299.80000000004,4200,110,1,trial,0.4918631923001473,0.5081368076998527
P001,1,Cannonball_MF_reversal,2026-02-04,14:44:13.527000,trial_111_trial,135.0,grey,-999,0.5,1,62,1233,-999,-999,2,1016.5,4150,111,0,trial,0.5514082034032436,-0.5514082034032436
P001,1,Cannonball_MF_reversal,2026-02-04,14:44:15.904000,trial_112_trial,135.0,grey,-999,0.5,0,63,1217,-999,-999,2,883.200000000011,4250,112,1,trial,0.48679251901184883,0.5132074809881512
P001,1,Cannonball_MF_reversal,2026-02-04,14:44:18.503000,trial_113_trial,135.0,grey,-999,0.5,0,63,1233,-999,-999,2,899.900000000023,4250,113,1,trial,0.5469317269782242,0.45306827302177577
P001,1,Cannonball_MF_reversal,2026-02-04,14:44:21.635000,trial_114_trial,135.0,grey,-999,0.5,0,64,1233,-999,-999,2,333.5,4350,114,1,trial,0.6000236402951546,0.39997635970484535
P001,1,Cannonball_MF_reversal,2026-02-04,14:44:23.637000,trial_115_trial,135.0,grey,-999,0.5,0,65,1250,-999,-999,2,900.0,4450,115,1,trial,0.6468940823074347,0.3531059176925653
P001,1,Cannonball_MF_reversal,2026-02-04,14:44:25.854000,trial_116_trial,135.0,grey,-999,0.5,0,66,1233,-999,-999,2,1066.80000000004,4550,116,1,trial,0.6882721038775476,0.31172789612245244
P001,1,Cannonball_MF_reversal,2026-02-04,14:44:28.219000,trial_117_trial,135.0,grey,-999,0.5,0,67,1250,-999,-999,2,983.400000000023,4650,117,1,trial,0.7248013234784241,0.2751986765215759
P001,1,Cannonball_MF_reversal,2026-02-04,14:44:31.002000,trial_118_trial,135.0,grey,-999,0.5,0,68,1233,-999,-999,2,766.799999999988,4750,118,1,trial,0.7570499384197648,0.24295006158023524
P001,1,Cannonball_MF_reversal,2026-02-04,14:44:33.120000,trial_119_trial,135.0,grey,-999,0.5,0,69,1250,-999,-999,2,933.5,4850,119,1,trial,0.7855195629285213,0.21448043707147868
P001,1,Cannonball_MF_reversal,2026-02-04,14:44:35.818000,trial_120_trial,135.0,grey,-999,0.5,0,70,1250,-999,-999,2,666.700000000011,4950,120,1,trial,0.8106530305563219,0.18934696944367813
P001,1,Cannonball_MF_reversal,2026-02-04,14:44:37.804000,trial_121_trial,147.5,grey,-999,0.5,0,71,1233,-999,-999,2,1050.0,5050,121,1,trial,0.8328412822771482,0.16715871772285185
P001,1,Cannonball_MF_reversal,2026-02-04,14:44:40.237000,trial_122_trial,147.5,grey,-999,0.5,0,72,1217,-999,-999,2,1133.39999999996,5150,122,1,trial,0.8524294474168518,0.14757055258314822
P001,1,Cannonball_MF_reversal,2026-02-04,14:44:42.651000,trial_123_trial,147.5,grey,-999,0.5,0,73,1234,-999,-999,2,933.600000000034,5250,123,1,trial,0.8697222120009203,0.13027778799907974
P001,1,Cannonball_MF_reversal,2026-02-04,14:44:44.903000,trial_124_trial,147.5,grey,-999,0.5,0,73,1217,-999,-999,2,733.200000000011,5250,124,1,trial,0.8849885580229825,0.11501144197701751
P001,1,Cannonball_MF_reversal,2026-02-04,14:44:47.905000,trial_125_trial,147.5,grey,-999,0.5,0,74,1233,-999,-999,2,249.900000000023,5350,125,1,trial,0.8984659473514679,0.1015340526485321
P001,1,Cannonball_MF_reversal,2026-02-04,14:44:49.841000,trial_126_trial,147.5,grey,-999,0.5,0,75,1233,-999,-999,2,833.5,5450,126,1,trial,0.9103640153534033,0.08963598464659672
P001,1,Cannonball_MF_reversal,2026-02-04,14:44:52.001000,trial_127_trial,147.5,grey,-999,0.5,0,76,1216,-999,-999,2,700.099999999976,5550,127,1,trial,0.9208678316881791,0.0791321683118209
P001,1,Cannonball_MF_reversal,2026-02-04,14:44:53.969000,trial_128_trial,147.5,grey,-999,0.5,0,77,1233,-999,-999,2,666.599999999976,5650,128,1,trial,0.9301407789916201,0.06985922100837993
P001,1,Cannonball_MF_reversal,2026-02-04,14:44:56.017000,trial_129_trial,147.5,grey,-999,0.5,0,77,1217,-999,-999,2,716.599999999976,5650,129,1,trial,0.9383270942271319,0.0616729057728681
P001,1,Cannonball_MF_reversal,2026-02-04,14:44:58.918000,trial_130_trial,147.5,grey,-999,0.5,0,78,1217,-999,-999,2,449.799999999988,5750,130,1,trial,0.9455541122336188,0.05444588776638115
P001,1,Cannonball_MF_reversal,2026-02-04,14:45:00.751000,trial_131_trial,147.5,grey,-999,0.5,0,79,1233,-999,-999,2,949.899999999965,5850,131,1,trial,0.9519342463676572,0.04806575363234278
P001,1,Cannonball_MF_reversal,2026-02-04,14:45:03.069000,trial_132_trial,147.5,grey,-999,0.5,0,80,1217,-999,-999,2,783.400000000023,5950,132,1,trial,0.9575667370480158,0.04243326295198424
P001,1,Cannonball_MF_reversal,2026-02-04,14:45:05.151000,trial_133_trial,147.5,grey,-999,0.5,1,80,1233,-999,-999,2,533.200000000011,5900,133,0,trial,0.9625391954004305,-0.9625391954004305
P001,1,Cannonball_MF_reversal,2026-02-04,14:45:07.051000,trial_134_trial,160.0,grey,-999,0.5,0,81,1217,-999,-999,2,733.299999999988,6000,134,1,trial,0.8497459353791281,0.15025406462087187
P001,1,Cannonball_MF_reversal,2026-02-04,14:45:09.136000,trial_135_trial,160.0,grey,-999,0.5,0,81,1233,-999,-999,2,800.0,6000,135,1,trial,0.8673531620365206,0.13264683796347942
P001,1,Cannonball_MF_reversal,2026-02-04,14:45:12.118000,trial_136_trial,160.0,grey,-999,0.5,0,82,1233,-999,-999,2,2066.39999999996,6100,136,1,trial,0.8828971205131352,0.11710287948686482
P001,1,Cannonball_MF_reversal,2026-02-04,14:45:15.552000,trial_137_trial,160.0,grey,-999,0.5,1,82,1217,-999,-999,2,1099.79999999998,6050,137,0,trial,0.8966195908274067,-0.8966195908274067
P001,1,Cannonball_MF_reversal,2026-02-04,14:45:18.003000,trial_138_trial,160.0,grey,-999,0.5,0,83,1233,-999,-999,2,516.200000000011,6150,138,1,trial,0.7915509898481845,0.2084490101518155
P001,1,Cannonball_MF_reversal,2026-02-04,14:45:20.251000,trial_139_trial,160.0,grey,-999,0.5,0,84,1217,-999,-999,2,649.799999999988,6250,139,1,trial,0.8159776765904897,0.1840223234095103
P001,1,Cannonball_MF_reversal,2026-02-04,14:45:22.737000,trial_140_trial,160.0,grey,-999,0.5,0,85,1233,-999,-999,2,649.899999999965,6350,140,1,trial,0.8375419701519774,0.1624580298480226
P001,1,Cannonball_MF_reversal,2026-02-04,14:45:24.701000,trial_141_trial,160.0,grey,-999,0.5,0,85,1233,-999,-999,2,716.700000000011,6350,141,1,trial,0.8565792944404428,0.14342070555955722
P001,1,Cannonball_MF_reversal,2026-02-04,14:45:27.600000,trial_142_trial,160.0,grey,-999,0.5,1,85,1233,-999,-999,2,417.0,6300,142,0,trial,0.8733857673736182,-0.8733857673736182
P001,1,Cannonball_MF_reversal,2026-02-04,14:45:29.385000,trial_143_trial,160.0,grey,-999,0.5,0,86,1250,-999,-999,2,466.5,6400,143,1,trial,0.7710397762399327,0.2289602237600673
P001,1,Cannonball_MF_reversal,2026-02-04,14:45:31.252000,trial_144_trial,160.0,grey,-999,0.5,0,87,1233,-999,-999,2,833.099999999976,6500,144,1,trial,0.79787002915484,0.20212997084516005
P001,1,Cannonball_MF_reversal,2026-02-04,14:45:33.367000,trial_145_trial,160.0,grey,-999,0.5,0,88,1233,-999,-999,2,733.200000000011,6600,145,1,trial,0.8215562317204942,0.1784437682795058
P001,1,Cannonball_MF_reversal,2026-02-04,14:45:35.519000,trial_146_trial,160.0,grey,-999,0.5,0,89,1233,-999,-999,2,583.299999999988,6700,146,1,trial,0.8424668132852876,0.1575331867147124
P001,1,Cannonball_MF_reversal,2026-02-04,14:45:37.434000,trial_147_trial,160.0,grey,-999,0.5,0,90,1233,-999,-999,2,583.299999999988,6800,147,1,trial,0.8609270295299932,0.13907297047000677
P001,1,Cannonball_MF_reversal,2026-02-04,14:45:39.335000,trial_148_trial,160.0,grey,-999,0.5,1,90,1217,-999,-999,2,550.099999999976,6750,148,0,trial,0.8772240216889802,-0.8772240216889802
P001,1,Cannonball_MF_reversal,2026-02-04,14:45:41.233000,trial_149_trial,160.0,grey,-999,0.5,1,90,1217,-999,-999,2,483.099999999976,6700,149,0,trial,0.7744282522822754,-0.7744282522822754
P001,1,Cannonball_MF_reversal,2026-02-04,14:45:43.067000,trial_150_trial,160.0,grey,-999,0.5,0,91,1233,-999,-999,1,816.599999999976,6800,150,1,trial,0.6836784026710309,0.31632159732896914
P001,1,Cannonball_MF_reversal,2026-02-04,14:45:45.202000,trial_151_trial,160.0,grey,-999,0.5,0,92,1233,-999,-999,1,1383.10000000003,6900,151,1,trial,0.7207459261011153,0.2792540738988847
P001,1,Cannonball_MF_reversal,2026-02-04,14:45:47.900000,trial_152_trial,172.5,grey,-999,0.5,0,93,1217,-999,-999,1,716.799999999988,7000,152,1,trial,0.7534697647975553,0.24653023520244466
P001,1,Cannonball_MF_reversal,2026-02-04,14:45:49.949000,trial_153_trial,157.5,grey,-999,0.5,1,93,1233,-999,-999,1,633.399999999965,6950,153,0,trial,0.7823589249015592,-0.7823589249015592
P001,1,Cannonball_MF_reversal,2026-02-04,14:45:51.954000,trial_154_trial,157.5,grey,-999,0.5,1,93,1217,-999,-999,2,833.700000000011,6900,154,0,trial,0.6906797350378187,-0.6906797350378187
P001,1,Cannonball_MF_reversal,2026-02-04,14:45:54.131000,trial_155_trial,170.0,grey,-999,0.5,0,94,1217,-999,-999,1,616.700000000011,7000,155,1,trial,0.6097437904884067,0.39025620951159334
P001,1,Cannonball_MF_reversal,2026-02-04,14:45:56.033000,trial_156_trial,170.0,grey,-999,0.5,0,94,1233,-999,-999,1,783.200000000011,7000,156,1,trial,0.6554751958428211,0.3445248041571789
P001,1,Cannonball_MF_reversal,2026-02-04,14:45:59,trial_157_trial,170.0,grey,-999,0.5,0,95,1233,-999,-999,1,1233.29999999998,7100,157,1,trial,0.6958476565226406,0.3041523434773594
P001,1,Cannonball_MF_reversal,2026-02-04,14:46:01.701000,trial_158_trial,170.0,grey,-999,0.5,1,95,1217,-999,-999,1,700.0,7050,158,0,trial,0.7314891499058356,-0.7314891499058356
P001,1,Cannonball_MF_reversal,2026-02-04,14:46:03.750000,trial_159_trial,170.0,grey,-999,0.5,0,96,1233,-999,-999,2,733.299999999988,7150,159,1,trial,0.6457710344437777,0.3542289655562223
P001,1,Cannonball_MF_reversal,2026-02-04,14:46:06.247000,trial_160_trial,170.0,grey,-999,0.5,0,97,1233,-999,-999,2,517.0,7250,160,1,trial,0.6872806581661013,0.3127193418338987
P001,1,Cannonball_MF_reversal,2026-02-04,14:46:08.167000,trial_161_trial,170.0,grey,-999,0.5,1,97,1233,-999,-999,2,616.700000000011,7200,161,0,trial,0.7239260583801544,-0.7239260583801544
P001,1,Cannonball_MF_reversal,2026-02-04,14:46:10.147000,trial_162_trial,170.0,grey,-999,0.5,1,97,1217,-999,-999,2,399.899999999965,7150,162,0,trial,0.6390942089040403,-0.6390942089040403
P001,1,Cannonball_MF_reversal,2026-02-04,14:46:11.899000,trial_163_trial,170.0,grey,-999,0.5,1,97,1233,-999,-999,1,566.599999999976,7100,163,0,trial,0.5642032126438482,-0.5642032126438482
P001,1,Cannonball_MF_reversal,2026-02-04,14:46:13.832000,trial_164_trial,170.0,grey,-999,0.5,1,97,1216,-999,-999,2,483.5,7050,164,0,trial,0.49808817029264585,-0.49808817029264585
P001,1,Cannonball_MF_reversal,2026-02-04,14:46:15.663000,trial_165_trial,170.0,grey,-999,0.5,1,97,1217,-999,-999,2,983.300000000046,7000,165,0,trial,0.43972068897467104,-0.43972068897467104
P001,1,Cannonball_MF_reversal,2026-02-04,14:46:17.998000,trial_166_trial,170.0,grey,-999,0.5,0,98,1217,-999,-999,1,599.899999999965,7100,166,1,trial,0.38819288600802615,0.6118071139919738
P001,1,Cannonball_MF_reversal,2026-02-04,14:46:19.916000,trial_167_trial,170.0,grey,-999,0.5,0,98,1250,-999,-999,1,850.0,7100,167,1,trial,0.4598862977892171,0.5401137022107829
P001,1,Cannonball_MF_reversal,2026-02-04,14:46:22.963000,trial_168_trial,170.0,grey,-999,0.5,0,99,1217,-999,-999,1,666.400000000023,7200,168,1,trial,0.5231784583013768,0.47682154169862323
P001,1,Cannonball_MF_reversal,2026-02-04,14:46:25.397000,trial_169_trial,170.0,grey,-999,0.5,0,100,1217,-999,-999,1,1149.80000000004,7300,169,1,trial,0.5790538516293304,0.42094614837066957
P001,1,Cannonball_MF_reversal,2026-02-04,14:46:28.346000,trial_170_trial,170.0,grey,-999,0.5,0,101,1217,-999,-999,1,666.5,7400,170,1,trial,0.6283815970292321,0.37161840297076787
P001,1,Cannonball_MF_reversal,2026-02-04,14:46:30.814000,trial_171_trial,170.0,grey,-999,0.5,0,102,1233,-999,-999,1,699.899999999965,7500,171,1,trial,0.6719289677288173,0.3280710322711827
P001,1,Cannonball_MF_reversal,2026-02-04,14:46:33.313000,trial_172_trial,170.0,grey,-999,0.5,0,103,1250,-999,-999,1,649.799999999988,7600,172,1,trial,0.7103733255536706,0.2896266744463294
P001,1,Cannonball_MF_reversal,2026-02-04,14:46:35.279000,trial_173_trial,170.0,grey,-999,0.5,0,103,1250,-999,-999,1,583.200000000011,7600,173,1,trial,0.744312657017819,0.255687342982181
P001,1,Cannonball_MF_reversal,2026-02-04,14:46:38.280000,trial_174_trial,170.0,grey,-999,0.5,1,103,1217,-999,-999,1,116.600000000034,7550,174,0,trial,0.7742748747632971,-0.7742748747632971
P001,1,Cannonball_MF_reversal,2026-02-04,14:46:39.748000,trial_175_trial,170.0,grey,-999,0.5,1,103,1250,-999,-999,1,1283.29999999998,7500,175,0,trial,0.6835429983945576,-0.6835429983945576
P001,1,Cannonball_MF_reversal,2026-02-04,14:46:42.414000,trial_176_trial,170.0,grey,-999,0.5,1,103,1233,-999,-999,1,466.700000000011,7450,176,0,trial,0.6034433582738415,-0.6034433582738415
P001,1,Cannonball_MF_reversal,2026-02-04,14:46:44.245000,trial_177_trial,170.0,grey,-999,0.5,0,104,1217,-999,-999,2,516.699999999953,7550,177,1,trial,0.5327300367351862,0.46726996326481385
P001,1,Cannonball_MF_reversal,2026-02-04,14:46:46.080000,trial_178_trial,170.0,grey,-999,0.5,1,104,1233,-999,-999,2,1433.40000000002,7500,178,0,trial,0.587486147154925,-0.587486147154925
P001,1,Cannonball_MF_reversal,2026-02-04,14:46:48.878000,trial_179_trial,170.0,grey,-999,0.5,0,104,1233,-999,-999,1,1133.20000000001,7500,179,1,trial,0.5186427399756552,0.48135726002434476
P001,1,Cannonball_MF_reversal,2026-02-04,14:46:52.246000,trial_180_trial,170.0,grey,-999,0.5,1,104,1217,-999,-999,1,149.899999999965,7450,180,0,trial,0.5750496425231204,-0.5750496425231204
P001,1,Cannonball_MF_reversal,2026-02-04,14:46:53.747000,trial_181_trial,170.0,grey,-999,0.5,1,104,1250,-999,-999,2,1499.70000000001,7400,181,0,trial,0.5076635826471028,-0.5076635826471028
P001,1,Cannonball_MF_reversal,2026-02-04,14:46:56.628000,trial_182_trial,170.0,grey,-999,0.5,0,105,1217,-999,-999,1,749.899999999965,7500,182,1,trial,0.4481740254898598,0.5518259745101401
P001,1,Cannonball_MF_reversal,2026-02-04,14:46:59.147000,trial_183_trial,170.0,grey,-999,0.5,1,105,1233,-999,-999,1,649.799999999988,7450,183,0,trial,0.5128386655656721,-0.5128386655656721
P001,1,Cannonball_MF_reversal,2026-02-04,14:47:01.161000,trial_184_trial,170.0,grey,-999,0.5,1,105,1217,-999,-999,1,916.600000000034,7400,184,0,trial,0.4527426765082475,-0.4527426765082475
P001,1,Cannonball_MF_reversal,2026-02-04,14:47:03.429000,trial_185_trial,170.0,grey,-999,0.5,1,105,1233,-999,-999,2,599.899999999965,7350,185,0,trial,0.39968891757753633,-0.39968891757753633
P001,1,Cannonball_MF_reversal,2026-02-04,14:47:05.400000,trial_186_trial,170.0,grey,-999,0.5,0,106,1234,-999,-999,2,716.5,7450,186,1,trial,0.3528521589048663,0.6471478410951337
P001,1,Cannonball_MF_reversal,2026-02-04,14:47:07.413000,trial_187_trial,170.0,grey,-999,0.5,0,107,1233,-999,-999,2,733.399999999965,7550,187,1,trial,0.4286869041928245,0.5713130958071755
P001,1,Cannonball_MF_reversal,2026-02-04,14:47:09.527000,trial_188_trial,170.0,grey,-999,0.5,1,107,1233,-999,-999,2,1600.0,7500,188,0,trial,0.4956351042005612,-0.4956351042005612
P001,1,Cannonball_MF_reversal,2026-02-04,14:47:12.496000,trial_189_trial,170.0,grey,-999,0.5,1,107,1250,-999,-999,1,699.700000000011,7450,189,0,trial,0.4375550806016031,-0.4375550806016031
P001,1,Cannonball_MF_reversal,2026-02-04,14:47:14.580000,trial_190_trial,170.0,grey,-999,0.5,0,107,1233,-999,-999,1,650.0,7450,190,1,trial,0.38628105018728126,0.6137189498127187
P001,1,Cannonball_MF_reversal,2026-02-04,14:47:17.501000,trial_191_trial,170.0,grey,-999,0.5,0,108,1234,-999,-999,1,333.199999999953,7550,191,1,trial,0.45819849668402224,0.5418015033159778
P001,1,Cannonball_MF_reversal,2026-02-04,14:47:19.646000,trial_192_trial,170.0,grey,-999,0.5,0,109,1233,-999,-999,1,850.0,7650,192,1,trial,0.5216884388447965,0.47831156115520346
P001,1,Cannonball_MF_reversal,2026-02-04,14:47:21.794000,trial_193_trial,170.0,grey,-999,0.5,0,110,1233,-999,-999,1,666.5,7750,193,1,trial,0.5777384371683763,0.42226156283162375
P001,1,Cannonball_MF_reversal,2026-02-04,14:47:23.877000,trial_194_trial,170.0,grey,-999,0.5,0,111,1233,-999,-999,1,700.0,7850,194,1,trial,0.6272203268213528,0.37277967317864724
P001,1,Cannonball_MF_reversal,2026-02-04,14:47:25.861000,trial_195_trial,170.0,grey,-999,0.5,0,112,1233,-999,-999,1,666.699999999953,7950,195,1,trial,0.6709037786832824,0.32909622131671756
P001,1,Cannonball_MF_reversal,2026-02-04,14:47:28.247000,trial_196_trial,182.5,grey,-999,0.5,0,113,1233,-999,-999,1,450.100000000093,8050,196,1,trial,0.7094682712674646,0.2905317287325354
P001,1,Cannonball_MF_reversal,2026-02-04,14:47:30.047000,trial_197_trial,182.5,grey,-999,0.5,1,113,1217,-999,-999,1,733.200000000069,8000,197,0,trial,0.7435136597357591,-0.7435136597357591
P001,1,Cannonball_MF_reversal,2026-02-04,14:47:32.128000,trial_198_trial,167.5,grey,-999,0.5,1,113,1217,-999,-999,1,883.199999999953,7950,198,0,trial,0.6563864757699391,-0.6563864757699391
P001,1,Cannonball_MF_reversal,2026-02-04,14:47:34.361000,trial_199_trial,167.5,grey,-999,0.5,1,113,1233,-999,-999,2,500.099999999976,7900,199,0,trial,0.5794691192718643,-0.5794691192718643
P001,1,Cannonball_MF_reversal,2026-02-04,14:47:36.227000,trial_200_trial,180.0,grey,-999,0.5,0,114,1217,-999,-999,2,683.400000000023,8000,200,1,trial,0.5115651717166111,0.4884348282833889
P001,1,Cannonball_MF_reversal,2026-02-04,14:47:38.280000,trial_201_trial,180.0,grey,-999,0.5,0,114,1233,-999,-999,2,816.600000000093,8000,201,1,trial,0.568801445162192,0.431198554837808
P001,1,Cannonball_MF_reversal,2026-02-04,14:47:41.328000,trial_202_trial,180.0,grey,-999,0.5,0,115,1233,-999,-999,2,133.099999999976,8100,202,1,trial,0.6193305986232075,0.3806694013767925
P001,1,Cannonball_MF_reversal,2026-02-04,14:47:43.243000,trial_203_trial,180.0,grey,-999,0.5,1,115,1250,-999,-999,2,683.400000000023,8050,203,0,trial,0.6639385927462766,-0.6639385927462766
P001,1,Cannonball_MF_reversal,2026-02-04,14:47:45.311000,trial_204_trial,180.0,grey,-999,0.5,0,115,1217,-999,-999,2,1633.30000000004,8050,204,1,trial,0.58613625629321,0.41386374370679
P001,1,Cannonball_MF_reversal,2026-02-04,14:47:49.146000,trial_205_trial,180.0,grey,-999,0.5,0,116,1233,-999,-999,2,66.5,8150,205,1,trial,0.6346340640504199,0.3653659359495801
P001,1,Cannonball_MF_reversal,2026-02-04,14:47:50.964000,trial_206_trial,180.0,grey,-999,0.5,1,116,1234,-999,-999,2,533.099999999976,8100,206,0,trial,0.6774487517155213,-0.6774487517155213
P001,1,Cannonball_MF_reversal,2026-02-04,14:47:52.860000,trial_207_trial,180.0,grey,-999,0.5,1,116,1233,-999,-999,2,600.200000000069,8050,207,0,trial,0.5980632538900877,-0.5980632538900877
P001,1,Cannonball_MF_reversal,2026-02-04,14:47:54.829000,trial_208_trial,180.0,grey,-999,0.5,1,116,1216,-999,-999,1,733.400000000023,8000,208,0,trial,0.5279803892882493,-0.5279803892882493
P001,1,Cannonball_MF_reversal,2026-02-04,14:47:56.909000,trial_209_trial,180.0,grey,-999,0.5,0,117,1217,-999,-999,2,549.900000000023,8100,209,1,trial,0.46611004715598614,0.5338899528440139
P001,1,Cannonball_MF_reversal,2026-02-04,14:47:59.227000,trial_210_trial,180.0,grey,-999,0.5,0,118,1234,-999,-999,2,683.400000000023,8200,210,1,trial,0.5286728898554397,0.4713271101445603
P001,1,Cannonball_MF_reversal,2026-02-04,14:48:01.712000,trial_211_trial,180.0,grey,-999,0.5,1,118,1216,-999,-999,2,733.29999999993,8150,211,0,trial,0.5839044290422757,-0.5839044290422757
P001,1,Cannonball_MF_reversal,2026-02-04,14:48:03.792000,trial_212_trial,180.0,grey,-999,0.5,0,118,1233,-999,-999,2,866.599999999976,8150,212,1,trial,0.5154807384463238,0.4845192615536762
P001,1,Cannonball_MF_reversal,2026-02-04,14:48:06.841000,trial_213_trial,180.0,grey,-999,0.5,0,119,1217,-999,-999,2,749.900000000023,8250,213,1,trial,0.5722581739158662,0.4277418260841338
P001,1,Cannonball_MF_reversal,2026-02-04,14:48:09.409000,trial_214_trial,180.0,grey,-999,0.5,0,120,1233,-999,-999,2,766.5,8350,214,1,trial,0.6223822574254454,0.3776177425745546
P001,1,Cannonball_MF_reversal,2026-02-04,14:48:11.608000,trial_215_trial,180.0,grey,-999,0.5,0,120,1233,-999,-999,2,650.0,8350,215,1,trial,0.6666326489216065,0.33336735107839355
P001,1,Cannonball_MF_reversal,2026-02-04,14:48:14.476000,trial_216_trial,180.0,grey,-999,0.5,1,120,1233,-999,-999,2,783.400000000023,8300,216,0,trial,0.7056976454354941,-0.7056976454354941
P001,1,Cannonball_MF_reversal,2026-02-04,14:48:16.627000,trial_217_trial,180.0,grey,-999,0.5,0,121,1247,-999,-999,2,636.300000000046,8400,217,1,trial,0.6230018566318885,0.37699814336811155
P001,1,Cannonball_MF_reversal,2026-02-04,14:48:18.657000,trial_218_trial,180.0,grey,-999,0.5,0,122,1233,-999,-999,2,650.099999999976,8500,218,1,trial,0.66717964161526,0.33282035838474
P001,1,Cannonball_MF_reversal,2026-02-04,14:48:20.625000,trial_219_trial,180.0,grey,-999,0.5,0,122,1233,-999,-999,2,616.5,8500,219,1,trial,0.7061805398675706,0.29381946013242943
P001,1,Cannonball_MF_reversal,2026-02-04,14:48:23.425000,trial_220_trial,180.0,grey,-999,0.5,1,122,1233,-999,-999,2,2350.0,8450,220,0,trial,0.7406111946652162,-0.7406111946652162
P001,1,Cannonball_MF_reversal,2026-02-04,14:48:27.148000,trial_221_trial,180.0,grey,-999,0.5,0,123,1233,-999,-999,2,433.199999999953,8550,221,1,trial,0.6538241303526726,0.3461758696473274
P001,1,Cannonball_MF_reversal,2026-02-04,14:48:28.895000,trial_222_trial,180.0,grey,-999,0.5,0,124,1233,-999,-999,2,633.29999999993,8650,222,1,trial,0.6943900678904034,0.30560993210959664
P001,1,Cannonball_MF_reversal,2026-02-04,14:48:31.275000,trial_223_trial,180.0,grey,-999,0.5,0,124,1234,-999,-999,2,183.199999999953,8650,223,1,trial,0.730202365926942,0.269797634073058
P001,1,Cannonball_MF_reversal,2026-02-04,14:48:33.657000,trial_224_trial,180.0,grey,-999,0.5,1,124,1250,-999,-999,2,1183.30000000004,8600,224,0,trial,0.761818070345581,-0.761818070345581
P001,1,Cannonball_MF_reversal,2026-02-04,14:48:36.223000,trial_225_trial,180.0,grey,-999,0.5,0,124,1217,-999,-999,2,416.600000000093,8600,225,1,trial,0.6725459200705279,0.32745407992947206
P001,1,Cannonball_MF_reversal,2026-02-04,14:48:38.825000,trial_226_trial,180.0,grey,-999,0.5,0,125,1237,-999,-999,2,1466.90000000002,8700,226,1,trial,0.7109179815502227,0.2890820184497773
P001,1,Cannonball_MF_reversal,2026-02-04,14:48:41.676000,trial_227_trial,180.0,grey,-999,0.5,1,125,1217,-999,-999,2,533.400000000023,8650,227,0,trial,0.7447934885740419,-0.7447934885740419
P001,1,Cannonball_MF_reversal,2026-02-04,14:48:43.557000,trial_228_trial,180.0,grey,-999,0.5,0,126,1216,-999,-999,2,316.900000000023,8750,228,1,trial,0.6575163303862589,0.3424836696137411
P001,1,Cannonball_MF_reversal,2026-02-04,14:48:45.207000,trial_229_trial,180.0,grey,-999,0.5,0,126,1234,-999,-999,2,416.599999999976,8750,229,1,trial,0.697649604734346,0.302350395265654
P001,1,Cannonball_MF_reversal,2026-02-04,14:48:47.806000,trial_230_trial,180.0,grey,-999,0.5,0,127,1250,-999,-999,1,933.199999999953,8850,230,1,trial,0.7330799403650473,0.2669200596349527
P001,1,Cannonball_MF_reversal,2026-02-04,14:48:50.426000,trial_231_trial,180.0,grey,-999,0.5,0,128,1217,-999,-999,1,566.599999999976,8950,231,1,trial,0.7643584418901535,0.23564155810984655
P001,1,Cannonball_MF_reversal,2026-02-04,14:48:52.739000,trial_232_trial,180.0,grey,-999,0.5,1,128,1217,-999,-999,1,566.699999999953,8900,232,0,trial,0.7919716338128487,-0.7919716338128487
P001,1,Cannonball_MF_reversal,2026-02-04,14:48:54.659000,trial_233_trial,180.0,grey,-999,0.5,1,128,1216,-999,-999,1,366.900000000023,8850,233,0,trial,0.6991659975862782,-0.6991659975862782
P001,1,Cannonball_MF_reversal,2026-02-04,14:48:56.374000,trial_234_trial,180.0,grey,-999,0.5,0,129,1233,-999,-999,2,349.800000000046,8950,234,1,trial,0.6172356070726794,0.38276439292732056
P001,1,Cannonball_MF_reversal,2026-02-04,14:48:58.040000,trial_235_trial,180.0,grey,-999,0.5,0,129,1234,-999,-999,2,216.699999999953,8950,235,1,trial,0.6620890986547926,0.3379109013452074
P001,1,Cannonball_MF_reversal,2026-02-04,14:49:00.446000,trial_236_trial,192.5,grey,-999,0.5,0,130,1217,-999,-999,2,233.300000000046,9050,236,1,trial,0.7016865221587847,0.2983134778412153
P001,1,Cannonball_MF_reversal,2026-02-04,14:49:02.010000,trial_237_trial,192.5,grey,-999,0.5,0,131,1217,-999,-999,2,983.099999999976,9150,237,1,trial,0.73664379957127,0.26335620042873
P001,1,Cannonball_MF_reversal,2026-02-04,14:49:04.242000,trial_238_trial,192.5,grey,-999,0.5,1,131,1233,-999,-999,2,1333.20000000006,9100,238,0,trial,0.7675046772738371,-0.7675046772738371
P001,1,Cannonball_MF_reversal,2026-02-04,14:49:06.942000,trial_239_trial,192.5,grey,-999,0.5,1,131,1233,-999,-999,1,683.700000000069,9050,239,0,trial,0.6775661531649051,-0.6775661531649051
P001,1,Cannonball_MF_reversal,2026-02-04,14:49:08.989000,trial_240_trial,192.5,grey,-999,0.5,1,131,1217,-999,-999,2,666.600000000093,9000,240,0,trial,0.5981668978818319,-0.5981668978818319
P001,1,Cannonball_MF_reversal,2026-02-04,14:49:11.010000,trial_241_trial,177.5,grey,-999,0.5,1,131,1233,-999,-999,2,1000.0,8950,241,0,trial,0.5280718879629338,-0.5280718879629338
P001,1,Cannonball_MF_reversal,2026-02-04,14:49:13.373000,trial_242_trial,177.5,grey,-999,0.5,1,131,1233,-999,-999,2,533.29999999993,8900,242,0,trial,0.4661908237386721,-0.4661908237386721
P001,1,Cannonball_MF_reversal,2026-02-04,14:49:15.272000,trial_243_trial,190.0,grey,-999,0.5,0,132,1217,-999,-999,1,433.300000000046,9000,243,1,trial,0.4115611701590838,0.5884388298409162
P001,1,Cannonball_MF_reversal,2026-02-04,14:49:17.023000,trial_244_trial,190.0,grey,-999,0.5,0,133,1233,-999,-999,1,716.600000000093,9100,244,1,trial,0.48051621558273083,0.5194837844172692
P001,1,Cannonball_MF_reversal,2026-02-04,14:49:19.072000,trial_245_trial,190.0,grey,-999,0.5,1,133,1233,-999,-999,1,500.0,9050,245,0,trial,0.5413908998061105,-0.5413908998061105
P001,1,Cannonball_MF_reversal,2026-02-04,14:49:20.942000,trial_246_trial,190.0,grey,-999,0.5,1,133,1233,-999,-999,1,433.400000000023,9000,246,0,trial,0.4779490734090115,-0.4779490734090115
P001,1,Cannonball_MF_reversal,2026-02-04,14:49:22.741000,trial_247_trial,190.0,grey,-999,0.5,0,133,1250,-999,-999,1,800.0,9000,247,1,trial,0.4219415524980983,0.5780584475019017
P001,1,Cannonball_MF_reversal,2026-02-04,14:49:25.823000,trial_248_trial,175.0,grey,-999,0.5,1,133,1217,-999,-999,1,149.899999999906,8950,248,0,trial,0.4896801932601171,-0.4896801932601171
P001,1,Cannonball_MF_reversal,2026-02-04,14:49:27.325000,trial_249_trial,175.0,grey,-999,0.5,1,133,1217,-999,-999,2,766.5,8900,249,0,trial,0.4322979841723174,-0.4322979841723174
P001,1,Cannonball_MF_reversal,2026-02-04,14:49:29.445000,trial_250_trial,187.5,grey,-999,0.5,0,134,1233,-999,-999,1,683.29999999993,9000,250,1,trial,0.3816399962499159,0.618360003750084
P001,1,Cannonball_MF_reversal,2026-02-04,14:49:31.541000,trial_251_trial,187.5,grey,-999,0.5,0,134,1217,-999,-999,1,616.600000000093,9000,251,1,trial,0.45410129551237455,0.5458987044876255
P001,1,Cannonball_MF_reversal,2026-02-04,14:49:34.337000,trial_252_trial,187.5,grey,-999,0.5,0,135,1233,-999,-999,1,1649.90000000002,9100,252,1,trial,0.5180713601235609,0.4819286398764391
P001,1,Cannonball_MF_reversal,2026-02-04,14:49:37.724000,trial_253_trial,187.5,grey,-999,0.5,0,136,1233,-999,-999,1,733.5,9200,253,1,trial,0.5745452186937379,0.42545478130626213
P001,1,Cannonball_MF_reversal,2026-02-04,14:49:40.270000,trial_254_trial,187.5,grey,-999,0.5,0,136,1217,-999,-999,1,366.5,9200,254,1,trial,0.6244012993650498,0.37559870063495016
P001,1,Cannonball_MF_reversal,2026-02-04,14:49:43.019000,trial_255_trial,187.5,grey,-999,0.5,0,136,1233,-999,-999,1,150.300000000046,9200,255,1,trial,0.6684150934077504,0.3315849065922496
P001,1,Cannonball_MF_reversal,2026-02-04,14:49:45.360000,trial_256_trial,187.5,grey,-999,0.5,1,136,1216,-999,-999,1,783.400000000023,9150,256,0,trial,0.7072712176748144,-0.7072712176748144
P001,1,Cannonball_MF_reversal,2026-02-04,14:49:47.487000,trial_257_trial,187.5,grey,-999,0.5,0,136,1233,-999,-999,1,833.199999999953,9150,257,1,trial,0.6243910329072831,0.37560896709271685
P001,1,Cannonball_MF_reversal,2026-02-04,14:49:50.519000,trial_258_trial,187.5,grey,-999,0.5,0,137,1217,-999,-999,1,83.3000000000465,9250,258,1,trial,0.6684060300046186,0.3315939699953814
P001,1,Cannonball_MF_reversal,2026-02-04,14:49:51.954000,trial_259_trial,187.5,grey,-999,0.5,1,137,1233,-999,-999,1,0.0,9200,259,0,trial,0.7072632163487294,-0.7072632163487294
P001,1,Cannonball_MF_reversal,2026-02-04,14:49:53.321000,trial_260_trial,187.5,grey,-999,0.5,0,138,1233,-999,-999,1,316.599999999976,9300,260,1,trial,0.6243839692008379,0.37561603079916206
P001,1,Cannonball_MF_reversal,2026-02-04,14:49:55.472000,trial_261_trial,187.5,grey,-999,0.5,1,138,1217,-999,-999,1,299.900000000023,9250,261,0,trial,0.6683997940447022,-0.6683997940447022
P001,1,Cannonball_MF_reversal,2026-02-04,14:49:57.120000,trial_262_trial,187.5,grey,-999,0.5,0,139,1233,-999,-999,1,1199.79999999993,9350,262,1,trial,0.5900746805032164,0.40992531949678357
P001,1,Cannonball_MF_reversal,2026-02-04,14:49:59.703000,trial_263_trial,187.5,grey,-999,0.5,0,139,1217,-999,-999,1,0.0,9350,263,1,trial,0.6381109717755744,0.3618890282244256
P001,1,Cannonball_MF_reversal,2026-02-04,14:50:01.886000,trial_264_trial,187.5,grey,-999,0.5,0,140,1233,-999,-999,1,1133.30000000004,9450,264,1,trial,0.6805182248562065,0.3194817751437935
P001,1,Cannonball_MF_reversal,2026-02-04,14:50:04.922000,trial_265_trial,187.5,grey,-999,0.5,1,140,1233,-999,-999,1,499.79999999993,9400,265,0,trial,0.7179560674999753,-0.7179560674999753
P001,1,Cannonball_MF_reversal,2026-02-04,14:50:06.790000,trial_266_trial,187.5,grey,-999,0.5,1,140,1233,-999,-999,1,1049.90000000002,9350,266,0,trial,0.6338237996480596,-0.6338237996480596
P001,1,Cannonball_MF_reversal,2026-02-04,14:50:09.203000,trial_267_trial,187.5,grey,-999,0.5,0,140,1217,-999,-999,1,883.099999999976,9350,267,1,trial,0.5595504059171662,0.4404495940828338
P001,1,Cannonball_MF_reversal,2026-02-04,14:50:12.321000,trial_268_trial,187.5,grey,-999,0.5,1,140,1250,-999,-999,1,383.5,9300,268,0,trial,0.6111636241934304,-0.6111636241934304
P001,1,Cannonball_MF_reversal,2026-02-04,14:50:14.086000,trial_269_trial,187.5,grey,-999,0.5,1,140,1217,-999,-999,1,416.599999999976,9250,269,0,trial,0.539545618497015,-0.539545618497015
P001,1,Cannonball_MF_reversal,2026-02-04,14:50:15.855000,trial_270_trial,187.5,grey,-999,0.5,0,141,1233,-999,-999,1,466.800000000046,9350,270,1,trial,0.47632002775608856,0.5236799722439114
P001,1,Cannonball_MF_reversal,2026-02-04,14:50:17.629000,trial_271_trial,187.5,grey,-999,0.5,1,141,1215,-999,-999,2,667.600000000093,9300,271,0,trial,0.5376864339861049,-0.5376864339861049
P001,1,Cannonball_MF_reversal,2026-02-04,14:50:19.635000,trial_272_trial,187.5,grey,-999,0.5,1,141,1250,-999,-999,1,1816.60000000009,9250,272,0,trial,0.47467870812067525,-0.47467870812067525
P001,1,Cannonball_MF_reversal,2026-02-04,14:50:22.834000,trial_273_trial,187.5,grey,-999,0.5,0,142,1233,-999,-999,1,599.900000000023,9350,273,1,trial,0.41905441852553044,0.5809455814744695
P001,1,Cannonball_MF_reversal,2026-02-04,14:50:24.736000,trial_274_trial,187.5,grey,-999,0.5,0,143,1233,-999,-999,1,616.599999999976,9450,274,1,trial,0.4871313823963019,0.5128686176036981
P001,1,Cannonball_MF_reversal,2026-02-04,14:50:27.071000,trial_275_trial,187.5,grey,-999,0.5,0,144,1217,-999,-999,1,483.099999999976,9550,275,1,trial,0.5472308813243161,0.4527691186756839
P001,1,Cannonball_MF_reversal,2026-02-04,14:50:28.890000,trial_276_trial,187.5,grey,-999,0.5,1,144,1233,-999,-999,2,866.400000000023,9500,276,0,trial,0.600287738828344,-0.600287738828344
P001,1,Cannonball_MF_reversal,2026-02-04,14:50:31.120000,trial_277_trial,187.5,grey,-999,0.5,0,145,1233,-999,-999,1,450.0,9600,277,1,trial,0.5299442023398404,0.4700557976601596
P001,1,Cannonball_MF_reversal,2026-02-04,14:50:33.268000,trial_278_trial,187.5,grey,-999,0.5,1,145,1217,-999,-999,1,516.599999999976,9550,278,0,trial,0.585026765276871,-0.585026765276871
P001,1,Cannonball_MF_reversal,2026-02-04,14:50:35.134000,trial_279_trial,187.5,grey,-999,0.5,0,146,1250,-999,-999,1,400.0,9650,279,1,trial,0.5164715559195586,0.4835284440804414
P001,1,Cannonball_MF_reversal,2026-02-04,14:50:36.885000,trial_280_trial,187.5,grey,-999,0.5,1,146,1217,-999,-999,1,599.900000000023,9600,280,0,trial,0.5731328843947819,-0.5731328843947819
P001,1,Cannonball_MF_reversal,2026-02-04,14:50:38.835000,trial_281_trial,187.5,grey,-999,0.5,1,146,1234,-999,-999,2,450.0,9550,281,0,trial,0.5059714360452359,-0.5059714360452359
P001,1,Cannonball_MF_reversal,2026-02-04,14:50:40.651000,trial_282_trial,187.5,grey,-999,0.5,0,146,1233,-999,-999,2,450.100000000093,9550,282,1,trial,0.4466801697550771,0.5533198302449229
P001,1,Cannonball_MF_reversal,2026-02-04,14:50:43.301000,trial_283_trial,187.5,grey,-999,0.5,0,147,1217,-999,-999,2,1166.5,9650,283,1,trial,0.5115198643732217,0.4884801356267783
P001,1,Cannonball_MF_reversal,2026-02-04,14:50:46.200000,trial_284_trial,187.5,grey,-999,0.5,0,148,1217,-999,-999,2,1133.30000000004,9750,284,1,trial,0.5687614470706109,0.43123855292938906
P001,1,Cannonball_MF_reversal,2026-02-04,14:50:48.616000,trial_285_trial,187.5,grey,-999,0.5,0,149,1217,-999,-999,2,500.0,9850,285,1,trial,0.6192952876292175,0.3807047123707825
P001,1,Cannonball_MF_reversal,2026-02-04,14:50:50.504000,trial_286_trial,187.5,grey,-999,0.5,0,150,1216,-999,-999,2,516.699999999953,9950,286,1,trial,0.6639074196015771,0.33609258039842294
P001,1,Cannonball_MF_reversal,2026-02-04,14:50:52.286000,trial_287_trial,200.0,grey,-999,0.5,0,151,1233,-999,-999,2,433.200000000069,10050,287,1,trial,0.7032917667463592,0.2967082332536408
P001,1,Cannonball_MF_reversal,2026-02-04,14:50:54.234000,trial_288_trial,200.0,grey,-999,0.5,1,151,1217,-999,-999,2,600.100000000093,10000,288,0,trial,0.7380609367331632,-0.7380609367331632
P001,1,Cannonball_MF_reversal,2026-02-04,14:50:56.184000,trial_289_trial,185.0,grey,-999,0.5,1,151,1233,-999,-999,2,433.5,9950,289,0,trial,0.6515727193739966,-0.6515727193739966
P001,1,Cannonball_MF_reversal,2026-02-04,14:50:57.985000,trial_290_trial,185.0,grey,-999,0.5,1,151,1217,-999,-999,1,433.29999999993,9900,290,0,trial,0.5752194534391335,-0.5752194534391335
P001,1,Cannonball_MF_reversal,2026-02-04,14:50:59.767000,trial_291_trial,197.5,grey,-999,0.5,0,152,1233,-999,-999,1,433.300000000046,10000,291,1,trial,0.5078134946053426,0.49218650539465736
P001,1,Cannonball_MF_reversal,2026-02-04,14:51:01.534000,trial_292_trial,197.5,grey,-999,0.5,0,153,1233,-999,-999,2,566.599999999976,10100,292,1,trial,0.5654894009447833,0.4345105990552167
P001,1,Cannonball_MF_reversal,2026-02-04,14:51:03.818000,trial_293_trial,197.5,grey,-999,0.5,0,153,1217,-999,-999,2,449.900000000023,10100,293,1,trial,0.6164066697847894,0.3835933302152106
P001,1,Cannonball_MF_reversal,2026-02-04,14:51:06.452000,trial_294_trial,197.5,grey,-999,0.5,0,153,1217,-999,-999,2,1033.19999999995,10100,294,1,trial,0.6613572987505033,0.3386427012494967
P001,1,Cannonball_MF_reversal,2026-02-04,14:51:09.666000,trial_295_trial,197.5,grey,-999,0.5,1,153,1216,-999,-999,2,1583.40000000002,10050,295,0,trial,0.7010404767850978,-0.7010404767850978
P001,1,Cannonball_MF_reversal,2026-02-04,14:51:12.601000,trial_296_trial,197.5,grey,-999,0.5,0,153,1250,-999,-999,2,733.400000000023,10050,296,1,trial,0.6188904291181205,0.38110957088187947
P001,1,Cannonball_MF_reversal,2026-02-04,14:51:15.649000,trial_297_trial,197.5,grey,-999,0.5,1,153,1233,-999,-999,2,2366.69999999995,10000,297,0,trial,0.6635500036377885,-0.6635500036377885
P001,1,Cannonball_MF_reversal,2026-02-04,14:51:19.383000,trial_298_trial,197.5,grey,-999,0.5,0,153,1250,-999,-999,2,566.700000000069,10000,298,1,trial,0.585793203234126,0.414206796765874
P001,1,Cannonball_MF_reversal,2026-02-04,14:51:22.148000,trial_299_trial,197.5,grey,-999,0.5,0,153,1216,-999,-999,2,150.100000000093,10000,299,1,trial,0.6343312109884678,0.3656687890115322
P001,1,Cannonball_MF_reversal,2026-02-04,14:51:24.547000,trial_300_trial,182.5,grey,-999,0.5,1,153,1234,-999,-999,2,333.199999999953,9950,300,0,trial,0.6771813878932057,-0.6771813878932057
P001,1,Cannonball_MF_reversal,2026-02-04,14:51:26.252000,trial_301_trial,182.5,grey,-999,0.5,1,153,1233,-999,-999,1,933.599999999976,9900,301,0,trial,0.597827220570753,-0.597827220570753
P001,1,Cannonball_MF_reversal,2026-02-04,14:51:28.551000,trial_302_trial,182.5,grey,-999,0.5,1,153,1233,-999,-999,1,483.5,9850,302,0,trial,0.5277720150686049,-0.5277720150686049
P001,1,Cannonball_MF_reversal,2026-02-04,14:51:30.401000,trial_303_trial,182.5,grey,-999,0.5,0,153,1233,-999,-999,1,481.5,9850,303,1,trial,0.46592609085890574,0.5340739091410942
P001,1,Cannonball_MF_reversal,2026-02-04,14:51:33.066000,trial_304_trial,182.5,grey,-999,0.5,1,153,1217,-999,-999,1,566.29999999993,9800,304,0,trial,0.5285104901147555,-0.5285104901147555
P001,1,Cannonball_MF_reversal,2026-02-04,14:51:34.981000,trial_305_trial,182.5,grey,-999,0.5,1,153,1233,-999,-999,2,416.79999999993,9750,305,0,trial,0.4665780291611006,-0.4665780291611006
P001,1,Cannonball_MF_reversal,2026-02-04,14:51:36.765000,trial_306_trial,182.5,grey,-999,0.5,1,153,1233,-999,-999,1,783.099999999976,9700,306,0,trial,0.4119030016766341,-0.4119030016766341
P001,1,Cannonball_MF_reversal,2026-02-04,14:51:38.915000,trial_307_trial,182.5,grey,-999,0.5,1,153,1233,-999,-999,1,933.400000000023,9650,307,0,trial,0.36363495961280984,-0.36363495961280984
P001,1,Cannonball_MF_reversal,2026-02-04,14:51:41.214000,trial_308_trial,182.5,grey,-999,0.5,0,154,1233,-999,-999,2,616.900000000023,9750,308,1,trial,0.3210231130008073,0.6789768869991927
P001,1,Cannonball_MF_reversal,2026-02-04,14:51:43.132000,trial_309_trial,182.5,grey,-999,0.5,0,155,1233,-999,-999,2,800.199999999953,9850,309,1,trial,0.40058768235000075,0.5994123176499992
P001,1,Cannonball_MF_reversal,2026-02-04,14:51:45.715000,trial_310_trial,182.5,grey,-999,0.5,0,156,1233,-999,-999,2,716.900000000023,9950,310,1,trial,0.47082863433174443,0.5291713656682555
P001,1,Cannonball_MF_reversal,2026-02-04,14:51:48.285000,trial_311_trial,195.0,grey,-999,0.5,0,157,1216,-999,-999,2,650.100000000093,10050,311,1,trial,0.5328385386856306,0.4671614613143694
P001,1,Cannonball_MF_reversal,2026-02-04,14:51:50.332000,trial_312_trial,195.0,grey,-999,0.5,1,157,1217,-999,-999,2,800.0,10000,312,0,trial,0.5875819345179866,-0.5875819345179866
P001,1,Cannonball_MF_reversal,2026-02-04,14:51:52.482000,trial_313_trial,180.0,grey,-999,0.5,1,157,1238,-999,-999,2,999.699999999953,9950,313,0,trial,0.5187273026852167,-0.5187273026852167
P001,1,Cannonball_MF_reversal,2026-02-04,14:51:54.854000,trial_314_trial,180.0,grey,-999,0.5,0,157,1217,-999,-999,2,1283.40000000002,9950,314,1,trial,0.45794126528381834,0.5420587347161816
P001,1,Cannonball_MF_reversal,2026-02-04,14:51:58.316000,trial_315_trial,192.5,grey,-999,0.5,0,158,1233,-999,-999,2,766.5,10050,315,1,trial,0.5214613505996428,0.4785386494003572
P001,1,Cannonball_MF_reversal,2026-02-04,14:52:00.433000,trial_316_trial,192.5,grey,-999,0.5,0,159,1250,-999,-999,2,1050.0,10150,316,1,trial,0.5775379598120112,0.42246204018798883
P001,1,Cannonball_MF_reversal,2026-02-04,14:52:02.796000,trial_317_trial,192.5,grey,-999,0.5,1,159,1233,-999,-999,2,733.200000000069,10100,317,0,trial,0.62704334200918,-0.62704334200918
P001,1,Cannonball_MF_reversal,2026-02-04,14:52:04.898000,trial_318_trial,192.5,grey,-999,0.5,1,159,1217,-999,-999,1,749.900000000023,10050,318,0,trial,0.5535645028534979,-0.5535645028534979
P001,1,Cannonball_MF_reversal,2026-02-04,14:52:06.995000,trial_319_trial,192.5,grey,-999,0.5,1,159,1233,-999,-999,1,566.400000000023,10000,319,0,trial,0.48869613675756735,-0.48869613675756735
P001,1,Cannonball_MF_reversal,2026-02-04,14:52:08.934000,trial_320_trial,192.5,grey,-999,0.5,0,159,1217,-999,-999,2,583.100000000093,10000,320,1,trial,0.4314292423930518,0.5685707576069482
P001,1,Cannonball_MF_reversal,2026-02-04,14:52:11.772000,trial_321_trial,192.5,grey,-999,0.5,0,159,1233,-999,-999,2,166.699999999953,10000,321,1,trial,0.49805608689946174,0.5019439131005383
P001,1,Cannonball_MF_reversal,2026-02-04,14:52:14.266000,trial_322_trial,192.5,grey,-999,0.5,0,159,1250,-999,-999,2,300.099999999976,10000,322,1,trial,0.5568753958450117,0.44312460415498833
P001,1,Cannonball_MF_reversal,2026-02-04,14:52:16.779000,trial_323_trial,177.5,grey,-999,0.5,1,159,1233,-999,-999,2,149.899999999906,9950,323,0,trial,0.6088020799085082,-0.6088020799085082
P001,1,Cannonball_MF_reversal,2026-02-04,14:52:18.297000,trial_324_trial,177.5,grey,-999,0.5,0,159,1217,-999,-999,1,1383.3999999999,9950,324,1,trial,0.5374608071283771,0.46253919287162293
P001,1,Cannonball_MF_reversal,2026-02-04,14:52:21.881000,trial_325_trial,190.0,grey,-999,0.5,0,160,1250,-999,-999,1,483.399999999906,10050,325,1,trial,0.5916625515362068,0.40833744846379316
P001,1,Cannonball_MF_reversal,2026-02-04,14:52:24.100000,trial_326_trial,190.0,grey,-999,0.5,1,160,1233,-999,-999,1,700.0,10000,326,0,trial,0.6395127712686626,-0.6395127712686626
P001,1,Cannonball_MF_reversal,2026-02-04,14:52:26.170000,trial_327_trial,175.0,grey,-999,0.5,1,160,1233,-999,-999,2,733.0,9950,327,0,trial,0.5645727266020746,-0.5645727266020746
P001,1,Cannonball_MF_reversal,2026-02-04,14:52:28.263000,trial_328_trial,175.0,grey,-999,0.5,0,160,1217,-999,-999,1,816.5,9950,328,1,trial,0.4984143834853856,0.5015856165146144
P001,1,Cannonball_MF_reversal,2026-02-04,14:52:31.265000,trial_329_trial,187.5,grey,-999,0.5,0,161,1217,-999,-999,1,150.0,10050,329,1,trial,0.5571917061511311,0.4428082938488689
P001,1,Cannonball_MF_reversal,2026-02-04,14:52:32.783000,trial_330_trial,187.5,grey,-999,0.5,0,162,1217,-999,-999,1,749.900000000023,10150,330,1,trial,0.6090813240143357,0.3909186759856643
P001,1,Cannonball_MF_reversal,2026-02-04,14:52:35.267000,trial_331_trial,187.5,grey,-999,0.5,0,163,1233,-999,-999,1,650.0,10250,331,1,trial,0.6548903591978753,0.3451096408021247
P001,1,Cannonball_MF_reversal,2026-02-04,14:52:37.178000,trial_332_trial,187.5,grey,-999,0.5,0,163,1233,-999,-999,1,766.599999999976,10250,332,1,trial,0.6953313528081755,0.3046686471918245
P001,1,Cannonball_MF_reversal,2026-02-04,14:52:40.246000,trial_333_trial,187.5,grey,-999,0.5,0,163,1233,-999,-999,1,1966.5,10250,333,1,trial,0.7310333482253593,0.26896665177464074
P001,1,Cannonball_MF_reversal,2026-02-04,14:52:44.496000,trial_334_trial,187.5,grey,-999,0.5,0,164,1233,-999,-999,1,250.0,10350,334,1,trial,0.7625516756198663,0.23744832438013375
P001,1,Cannonball_MF_reversal,2026-02-04,14:52:46.130000,trial_335_trial,187.5,grey,-999,0.5,0,165,1233,-999,-999,1,716.700000000069,10450,335,1,trial,0.7903765898897616,0.20962341011023844
P001,1,Cannonball_MF_reversal,2026-02-04,14:52:48.145000,trial_336_trial,187.5,grey,-999,0.5,0,165,1217,-999,-999,1,950.0,10450,336,1,trial,0.8149408963783715,0.18505910362162847
P001,1,Cannonball_MF_reversal,2026-02-04,14:52:51.427000,trial_337_trial,187.5,grey,-999,0.5,0,165,1233,-999,-999,1,366.599999999976,10450,337,1,trial,0.8366266829872169,0.16337331701278313
P001,1,Cannonball_MF_reversal,2026-02-04,14:52:54.062000,trial_338_trial,187.5,grey,-999,0.5,1,165,1250,-999,-999,1,266.599999999976,10400,338,0,trial,0.8557712633995496,-0.8557712633995496
P001,1,Cannonball_MF_reversal,2026-02-04,14:52:55.710000,trial_339_trial,187.5,grey,-999,0.5,0,165,1233,-999,-999,1,700.0,10400,339,1,trial,0.755489393224665,0.24451060677533498
P001,1,Cannonball_MF_reversal,2026-02-04,14:52:58.597000,trial_340_trial,187.5,grey,-999,0.5,0,165,1233,-999,-999,1,1016.80000000004,10400,340,1,trial,0.7841418871488252,0.21585811285117484
P001,1,Cannonball_MF_reversal,2026-02-04,14:53:01.896000,trial_341_trial,187.5,grey,-999,0.5,0,166,1233,-999,-999,1,533.300000000046,10500,341,1,trial,0.8094367949997219,0.19056320500027812
P001,1,Cannonball_MF_reversal,2026-02-04,14:53:03.745000,trial_342_trial,187.5,grey,-999,0.5,0,166,1217,-999,-999,1,666.599999999976,10500,342,1,trial,0.8317675688890358,0.1682324311109642
P001,1,Cannonball_MF_reversal,2026-02-04,14:53:06.593000,trial_343_trial,187.5,grey,-999,0.5,0,166,1250,-999,-999,1,116.700000000069,10500,343,1,trial,0.851481555017591,0.14851844498240896
P001,1,Cannonball_MF_reversal,2026-02-04,14:53:08.910000,trial_344_trial,187.5,grey,-999,0.5,0,167,1233,-999,-999,1,233.29999999993,10600,344,1,trial,0.86888539650572,0.13111460349427995
P001,1,Cannonball_MF_reversal,2026-02-04,14:53:10.494000,trial_345_trial,187.5,grey,-999,0.5,0,168,1233,-999,-999,1,616.699999999953,10700,345,1,trial,0.8842498031035916,0.11575019689640842
P001,1,Cannonball_MF_reversal,2026-02-04,14:53:12.881000,trial_346_trial,187.5,grey,-999,0.5,0,169,1217,-999,-999,1,633.400000000023,10800,346,1,trial,0.8978137619724271,0.10218623802757287
P001,1,Cannonball_MF_reversal,2026-02-04,14:53:14.909000,trial_347_trial,187.5,grey,-999,0.5,0,170,1233,-999,-999,1,550.099999999976,10900,347,1,trial,0.9097882550336138,0.09021174496638618
P001,1,Cannonball_MF_reversal,2026-02-04,14:53:16.762000,trial_348_trial,187.5,grey,-999,0.5,0,170,1217,-999,-999,1,566.899999999906,10900,348,1,trial,0.9203595407075815,0.07964045929241848
P001,1,Cannonball_MF_reversal,2026-02-04,14:53:19.510000,trial_349_trial,200.0,grey,-999,0.5,0,171,1217,-999,-999,1,1399.90000000002,11000,349,1,trial,0.929692051088573,0.070307948911427
P001,1,Cannonball_MF_reversal,2026-02-04,14:53:22.245000,trial_350_trial,200.0,grey,-999,0.5,0,172,1233,-999,-999,1,783.400000000023,11100,350,1,trial,0.937930949619694,0.06206905038030597
P001,1,Cannonball_MF_reversal,2026-02-04,14:53:24.314000,trial_351_trial,200.0,grey,-999,0.5,0,173,1217,-999,-999,1,783.400000000023,11200,351,1,trial,0.94520438905185,0.05479561094815
P001,1,Cannonball_MF_reversal,2026-02-04,14:53:26.448000,trial_352_trial,200.0,grey,-999,0.5,0,174,1217,-999,-999,1,700.0,11300,352,1,trial,0.9516255048082111,0.048374495191788935
P001,1,Cannonball_MF_reversal,2026-02-04,14:53:28.513000,trial_353_trial,200.0,grey,-999,0.5,1,174,1250,-999,-999,1,683.5,11250,353,0,trial,0.9572941747601882,-0.9572941747601882
P001,1,Cannonball_MF_reversal,2026-02-04,14:53:30.577000,trial_354_trial,200.0,grey,-999,0.5,0,175,1243,-999,-999,1,823.29999999993,11350,354,1,trial,0.8451155421532488,0.1548844578467512
P001,1,Cannonball_MF_reversal,2026-02-04,14:53:33.243000,trial_355_trial,200.0,grey,-999,0.5,0,175,1233,-999,-999,1,499.900000000023,11350,355,1,trial,0.8632653723218783,0.13673462767812172
P001,1,Cannonball_MF_reversal,2026-02-04,14:53:36.014000,trial_356_trial,200.0,grey,-999,0.5,0,176,1233,-999,-999,1,316.699999999953,11450,356,1,trial,0.8792883503858503,0.12071164961414971
P001,1,Cannonball_MF_reversal,2026-02-04,14:53:37.664000,trial_357_trial,200.0,grey,-999,0.5,0,177,1233,-999,-999,1,633.300000000046,11550,357,1,trial,0.8934337073204995,0.10656629267950046
P001,1,Cannonball_MF_reversal,2026-02-04,14:53:39.563000,trial_358_trial,200.0,grey,-999,0.5,0,177,1250,-999,-999,1,683.399999999906,11550,358,1,trial,0.9059214684601429,0.09407853153985712
P001,1,Cannonball_MF_reversal,2026-02-04,14:53:42.443000,trial_359_trial,200.0,grey,-999,0.5,0,178,1217,-999,-999,1,1866.69999999995,11650,359,1,trial,0.9169458759036059,0.08305412409639412
P001,1,Cannonball_MF_reversal,2026-02-04,14:53:45.610000,trial_360_trial,200.0,grey,-999,0.5,0,178,1233,-999,-999,1,633.200000000069,11650,360,1,trial,0.9266784098718968,0.07332159012810324
P001,1,Cannonball_MF_reversal,2026-02-04,14:53:48.494000,trial_361_trial,200.0,grey,-999,0.5,0,179,1233,-999,-999,1,25982.0,11750,361,1,trial,0.9352704560140322,0.06472954398596775
P001,1,Cannonball_MF_reversal,2026-02-04,14:54:15.825000,trial_362_trial,200.0,grey,-999,0.5,1,179,1217,-999,-999,2,1149.80000000004,11700,362,0,trial,0.9428556601498828,-0.9428556601498828
P001,1,Cannonball_MF_reversal,2026-02-04,14:54:18.325000,trial_363_trial,200.0,grey,-999,0.5,1,179,1233,-999,-999,2,850.099999999976,11650,363,0,trial,0.8323689764428363,-0.8323689764428363
P001,1,Cannonball_MF_reversal,2026-02-04,14:54:20.541000,trial_364_trial,200.0,grey,-999,0.5,0,180,1233,-999,-999,2,33.5999999999767,11750,364,1,trial,0.7348294571773124,0.2651705428226876
P001,1,Cannonball_MF_reversal,2026-02-04,14:54:21.989000,trial_365_trial,200.0,grey,-999,0.5,1,180,1217,-999,-999,1,633.400000000023,11700,365,0,trial,0.7659029450202116,-0.7659029450202116
P001,1,Cannonball_MF_reversal,2026-02-04,14:54:23.980000,trial_366_trial,200.0,grey,-999,0.5,1,180,1233,-999,-999,1,616.79999999993,11650,366,0,trial,0.676152116751024,-0.676152116751024
P001,1,Cannonball_MF_reversal,2026-02-04,14:54:25.957000,trial_367_trial,200.0,grey,-999,0.5,0,180,1233,-999,-999,1,449.900000000023,11650,367,1,trial,0.5969185625403566,0.4030814374596434
P001,1,Cannonball_MF_reversal,2026-02-04,14:54:28.593000,trial_368_trial,200.0,grey,-999,0.5,0,181,1233,-999,-999,2,449.800000000046,11750,368,1,trial,0.644152866974299,0.35584713302570103
P001,1,Cannonball_MF_reversal,2026-02-04,14:54:30.372000,trial_369_trial,200.0,grey,-999,0.5,1,181,1233,-999,-999,2,483.5,11700,369,0,trial,0.6858521124647698,-0.6858521124647698
P001,1,Cannonball_MF_reversal,2026-02-04,14:54:32.221000,trial_370_trial,200.0,grey,-999,0.5,0,182,1233,-999,-999,2,566.800000000046,11800,370,1,trial,0.6054818833592261,0.39451811664077385
P001,1,Cannonball_MF_reversal,2026-02-04,14:54:34.174000,trial_371_trial,200.0,grey,-999,0.5,0,182,1233,-999,-999,2,499.900000000023,11800,371,1,trial,0.6517127119073198,0.34828728809268017
P001,1,Cannonball_MF_reversal,2026-02-04,14:54:36.922000,trial_372_trial,200.0,grey,-999,0.5,0,183,1233,-999,-999,2,149.900000000023,11900,372,1,trial,0.6925260718574141,0.3074739281425859
P001,1,Cannonball_MF_reversal,2026-02-04,14:54:38.456000,trial_373_trial,200.0,grey,-999,0.5,0,183,1217,-999,-999,2,499.899999999906,11900,373,1,trial,0.7285567985981887,0.27144320140181133
P001,1,Cannonball_MF_reversal,2026-02-04,14:54:41.138000,trial_374_trial,200.0,grey,-999,0.5,1,183,1216,-999,-999,2,2649.90000000002,11850,374,0,trial,0.7603653355835237,-0.7603653355835237
P001,1,Cannonball_MF_reversal,2026-02-04,14:54:45.139000,trial_375_trial,200.0,grey,-999,0.5,0,184,1217,-999,-999,2,383.399999999906,11950,375,1,trial,0.6712634211705962,0.32873657882940377
P001,1,Cannonball_MF_reversal,2026-02-04,14:54:46.891000,trial_376_trial,200.0,grey,-999,0.5,1,184,1217,-999,-999,2,599.900000000023,11900,376,0,trial,0.7097857697581701,-0.7097857697581701
P001,1,Cannonball_MF_reversal,2026-02-04,14:54:48.838000,trial_377_trial,200.0,grey,-999,0.5,1,184,1216,-999,-999,2,266.900000000023,11850,377,0,trial,0.6266109221568236,-0.6266109221568236
P001,1,Cannonball_MF_reversal,2026-02-04,14:54:50.455000,trial_378_trial,200.0,grey,-999,0.5,0,184,1250,-999,-999,1,416.800000000046,11850,378,1,trial,0.5531827552699471,0.4468172447300529
P001,1,Cannonball_MF_reversal,2026-02-04,14:54:53.071000,trial_379_trial,200.0,grey,-999,0.5,1,184,1250,-999,-999,1,1549.90000000002,11800,379,0,trial,0.6055421541470728,-0.6055421541470728
P001,1,Cannonball_MF_reversal,2026-02-04,14:54:56.005000,trial_380_trial,200.0,grey,-999,0.5,1,184,1233,-999,-999,1,416.400000000023,11750,380,0,trial,0.5345828893473095,-0.5345828893473095
P001,1,Cannonball_MF_reversal,2026-02-04,14:54:57.794000,trial_381_trial,200.0,grey,-999,0.5,1,184,1233,-999,-999,2,433.300000000046,11700,381,0,trial,0.47193884624836263,-0.47193884624836263
P001,1,Cannonball_MF_reversal,2026-02-04,14:54:59.587000,trial_382_trial,200.0,grey,-999,0.5,1,184,1217,-999,-999,2,666.699999999953,11650,382,0,trial,0.41663562197093473,-0.41663562197093473
P001,1,Cannonball_MF_reversal,2026-02-04,14:55:01.604000,trial_383_trial,200.0,grey,-999,0.5,0,185,1217,-999,-999,1,650.199999999953,11750,383,1,trial,0.36781299711818305,0.632187002881817
P001,1,Cannonball_MF_reversal,2026-02-04,14:55:03.522000,trial_384_trial,200.0,grey,-999,0.5,1,185,1250,-999,-999,1,550.200000000069,11700,384,0,trial,0.44189458604347565,-0.44189458604347565
P001,1,Cannonball_MF_reversal,2026-02-04,14:55:05.453000,trial_385_trial,200.0,grey,-999,0.5,1,185,1217,-999,-999,1,450.099999999976,11650,385,0,trial,0.39011203923002125,-0.39011203923002125
P001,1,Cannonball_MF_reversal,2026-02-04,14:55:07.259000,trial_386_trial,200.0,grey,-999,0.5,0,185,1250,-999,-999,2,616.5,11650,386,1,trial,0.34439752818612884,0.6556024718138711
P001,1,Cannonball_MF_reversal,2026-02-04,14:55:10.087000,trial_387_trial,200.0,grey,-999,0.5,1,185,1217,-999,-999,2,66.5,11600,387,0,trial,0.4212230127246024,-0.4212230127246024
P001,1,Cannonball_MF_reversal,2026-02-04,14:55:11.505000,trial_388_trial,200.0,grey,-999,0.5,1,185,1217,-999,-999,1,483.200000000069,11550,388,0,trial,0.37186282352063227,-0.37186282352063227
P001,1,Cannonball_MF_reversal,2026-02-04,14:55:13.339000,trial_389_trial,200.0,grey,-999,0.5,1,185,1217,-999,-999,2,699.900000000023,11500,389,0,trial,0.32828681088026473,-0.32828681088026473
P001,1,Cannonball_MF_reversal,2026-02-04,14:55:15.387000,trial_390_trial,200.0,grey,-999,0.5,1,185,1250,-999,-999,1,850.0,11450,390,0,trial,0.2898171674640531,-0.2898171674640531
P001,1,Cannonball_MF_reversal,2026-02-04,14:55:17.622000,trial_391_trial,200.0,grey,-999,0.5,0,186,1234,-999,-999,1,916.699999999953,11550,391,1,trial,0.2558555134507732,0.7441444865492268
P001,1,Cannonball_MF_reversal,2026-02-04,14:55:20.405000,trial_392_trial,200.0,grey,-999,0.5,1,186,1217,-999,-999,1,700.100000000093,11500,392,0,trial,0.3430566196144006,-0.3430566196144006
P001,1,Cannonball_MF_reversal,2026-02-04,14:55:22.453000,trial_393_trial,200.0,grey,-999,0.5,1,186,1233,-999,-999,2,483.199999999953,11450,393,0,trial,0.3028562052488343,-0.3028562052488343
P001,1,Cannonball_MF_reversal,2026-02-04,14:55:24.303000,trial_394_trial,200.0,grey,-999,0.5,0,187,1233,-999,-999,1,816.699999999953,11550,394,1,trial,0.2673665972713788,0.7326334027286212
P001,1,Cannonball_MF_reversal,2026-02-04,14:55:26.885000,trial_395_trial,200.0,grey,-999,0.5,0,188,1217,-999,-999,1,616.599999999976,11650,395,1,trial,0.35321879974702247,0.6467812002529776
P001,1,Cannonball_MF_reversal,2026-02-04,14:55:28.789000,trial_396_trial,200.0,grey,-999,0.5,1,188,1233,-999,-999,1,799.900000000023,11600,396,0,trial,0.42901058094994254,-0.42901058094994254
P001,1,Cannonball_MF_reversal,2026-02-04,14:55:30.953000,trial_397_trial,200.0,grey,-999,0.5,1,188,1250,-999,-999,1,816.800000000046,11550,397,0,trial,0.3787378209000558,-0.3787378209000558
P001,1,Cannonball_MF_reversal,2026-02-04,14:55:33.152000,trial_398_trial,200.0,grey,-999,0.5,0,188,1250,-999,-999,2,2050.0,11550,398,1,trial,0.33435617523116473,0.6656438247688352
P001,1,Cannonball_MF_reversal,2026-02-04,14:55:37.419000,trial_399_trial,200.0,grey,-999,0.5,0,189,1233,-999,-999,2,283.300000000046,11650,399,1,trial,0.4123583359405694,0.5876416640594306
P001,1,Cannonball_MF_reversal,2026-02-04,14:55:39.435000,trial_400_trial,200.0,grey,-999,0.5,0,190,1250,-999,-999,2,616.699999999953,11750,400,1,trial,0.481219967062024,0.5187800329379759
P001,1,Cannonball_MF_reversal,2026-02-04,14:55:41.337000,trial_401_trial,200.0,grey,-999,0.5,0,191,1217,-999,-999,2,599.800000000046,11850,401,1,trial,0.5420121835542469,0.45798781644575315
P001,1,Cannonball_MF_reversal,2026-02-04,14:55:43.305000,trial_402_trial,200.0,grey,-999,0.5,0,192,1250,-999,-999,2,550.099999999976,11950,402,1,trial,0.5956805838789359,0.40431941612106415
P001,1,Cannonball_MF_reversal,2026-02-04,14:55:45.155000,trial_403_trial,200.0,grey,-999,0.5,0,192,1233,-999,-999,2,650.099999999976,11950,403,1,trial,0.6430599584042841,0.3569400415957159
P001,1,Cannonball_MF_reversal,2026-02-04,14:55:48.321000,trial_404_trial,212.5,grey,-999,0.5,0,193,1233,-999,-999,2,0.0,12050,404,1,trial,0.6848872742331955,0.3151127257668045
P001,1,Cannonball_MF_reversal,2026-02-04,14:55:50.102000,trial_405_trial,212.5,grey,-999,0.5,0,193,1233,-999,-999,2,516.700000000069,12050,405,1,trial,0.721813138429978,0.27818686157002204
P001,1,Cannonball_MF_reversal,2026-02-04,14:55:52.819000,trial_406_trial,212.5,grey,-999,0.5,0,194,1217,-999,-999,2,1866.59999999997,12150,406,1,trial,0.7544119179513916,0.24558808204860838
P001,1,Cannonball_MF_reversal,2026-02-04,14:55:56.019000,trial_407_trial,212.5,grey,-999,0.5,0,195,1231,-999,-999,2,519.300000000046,12250,407,1,trial,0.7831906736935074,0.21680932630649263
P001,1,Cannonball_MF_reversal,2026-02-04,14:55:57.836000,trial_408_trial,212.5,grey,-999,0.5,0,195,1233,-999,-999,2,983.300000000046,12250,408,1,trial,0.8085970476198784,0.19140295238012162
P001,1,Cannonball_MF_reversal,2026-02-04,14:56:01.018000,trial_409_trial,212.5,grey,-999,0.5,0,196,1233,-999,-999,2,199.900000000139,12350,409,1,trial,0.8310262256521295,0.16897377434787053
P001,1,Cannonball_MF_reversal,2026-02-04,14:56:02.535000,trial_410_trial,212.5,grey,-999,0.5,0,197,1217,-999,-999,2,583.300000000046,12450,410,1,trial,0.8508270846279257,0.14917291537207433
P001,1,Cannonball_MF_reversal,2026-02-04,14:56:04.487000,trial_411_trial,212.5,grey,-999,0.5,1,197,1233,-999,-999,2,583.300000000046,12400,411,0,trial,0.868307618939776,-0.868307618939776
P001,1,Cannonball_MF_reversal,2026-02-04,14:56:06.435000,trial_412_trial,212.5,grey,-999,0.5,0,198,1250,-999,-999,2,549.900000000139,12500,412,1,trial,0.7665567006295789,0.23344329937042108
P001,1,Cannonball_MF_reversal,2026-02-04,14:56:08.301000,trial_413_trial,212.5,grey,-999,0.5,0,199,1250,-999,-999,2,666.59999999986,12600,413,1,trial,0.79391229393107,0.20608770606893
P001,1,Cannonball_MF_reversal,2026-02-04,14:56:10.766000,trial_414_trial,212.5,grey,-999,0.5,0,199,1233,-999,-999,2,450.09999999986,12600,414,1,trial,0.8180622759046936,0.1819377240953064
P001,1,Cannonball_MF_reversal,2026-02-04,14:56:13.418000,trial_415_trial,212.5,grey,-999,0.5,1,199,1233,-999,-999,1,133.399999999906,12550,415,0,trial,0.8393822898008848,-0.8393822898008848
P001,1,Cannonball_MF_reversal,2026-02-04,14:56:14.918000,trial_416_trial,212.5,grey,-999,0.5,0,199,1217,-999,-999,2,700.0,12550,416,1,trial,0.7410209292212769,0.25897907077872306
P001,1,Cannonball_MF_reversal,2026-02-04,14:56:17.817000,trial_417_trial,212.5,grey,-999,0.5,0,199,1219,-999,-999,2,1800.10000000009,12550,417,1,trial,0.771368881605977,0.22863111839402295
P001,1,Cannonball_MF_reversal,2026-02-04,14:56:21.799000,trial_418_trial,212.5,grey,-999,0.5,0,200,1250,-999,-999,2,166.900000000139,12650,418,1,trial,0.7981605689566932,0.20183943104330682
P001,1,Cannonball_MF_reversal,2026-02-04,14:56:23.269000,trial_419_trial,212.5,grey,-999,0.5,0,201,1233,-999,-999,2,649.900000000139,12750,419,1,trial,0.8218127251878463,0.17818727481215368
P001,1,Cannonball_MF_reversal,2026-02-04,14:56:25.284000,trial_420_trial,212.5,grey,-999,0.5,0,202,1233,-999,-999,2,466.600000000093,12850,420,1,trial,0.8426932500707975,0.15730674992920246
P001,1,Cannonball_MF_reversal,2026-02-04,14:56:27.086000,trial_421_trial,212.5,grey,-999,0.5,1,202,1217,-999,-999,2,383.100000000093,12800,421,0,trial,0.86112693176673,-0.86112693176673
P001,1,Cannonball_MF_reversal,2026-02-04,14:56:28.817000,trial_422_trial,212.5,grey,-999,0.5,0,203,1233,-999,-999,2,383.0,12900,422,1,trial,0.7602174681415071,0.23978253185849285
P001,1,Cannonball_MF_reversal,2026-02-04,14:56:30.551000,trial_423_trial,225.0,grey,-999,0.5,0,204,1250,-999,-999,2,600.0,13000,423,1,trial,0.7883159119178458,0.21168408808215422
P001,1,Cannonball_MF_reversal,2026-02-04,14:56:32.552000,trial_424_trial,225.0,grey,-999,0.5,0,204,1233,-999,-999,2,483.5,13000,424,1,trial,0.8131216948963662,0.1868783051036338
P001,1,Cannonball_MF_reversal,2026-02-04,14:56:35.232000,trial_425_trial,225.0,grey,-999,0.5,0,204,1233,-999,-999,2,166.900000000139,13000,425,1,trial,0.8350206610482074,0.16497933895179262
P001,1,Cannonball_MF_reversal,2026-02-04,14:56:37.653000,trial_426_trial,210.0,grey,-999,0.5,1,204,1217,-999,-999,2,1666.3999999999,12950,426,0,trial,0.8543534399786183,-0.8543534399786183
P001,1,Cannonball_MF_reversal,2026-02-04,14:56:40.667000,trial_427_trial,222.5,grey,-999,0.5,0,205,1233,-999,-999,2,683.300000000046,13050,427,1,trial,0.7542377146491027,0.24576228535089728
P001,1,Cannonball_MF_reversal,2026-02-04,14:56:42.682000,trial_428_trial,222.5,grey,-999,0.5,0,206,1217,-999,-999,2,416.800000000046,13150,428,1,trial,0.7830368840621272,0.21696311593787276
P001,1,Cannonball_MF_reversal,2026-02-04,14:56:44.804000,trial_429_trial,222.5,grey,-999,0.5,0,206,1233,-999,-999,2,411.600000000093,13150,429,1,trial,0.8084612795235835,0.1915387204764165
P001,1,Cannonball_MF_reversal,2026-02-04,14:56:47.415000,trial_430_trial,222.5,grey,-999,0.5,0,206,1233,-999,-999,2,216.600000000093,13150,430,1,trial,0.8309063672728219,0.16909363272717814
P001,1,Cannonball_MF_reversal,2026-02-04,14:56:49.838000,trial_431_trial,222.5,grey,-999,0.5,0,207,1217,-999,-999,2,350.0,13250,431,1,trial,0.8507212716167522,0.14927872838324785
P001,1,Cannonball_MF_reversal,2026-02-04,14:56:51.915000,trial_432_trial,222.5,grey,-999,0.5,0,207,1250,-999,-999,2,866.699999999953,13250,432,1,trial,0.8682142054179324,0.13178579458206763
P001,1,Cannonball_MF_reversal,2026-02-04,14:56:55.065000,trial_433_trial,222.5,grey,-999,0.5,0,208,1233,-999,-999,2,567.0,13350,433,1,trial,0.8836572642216055,0.11634273577839449
P001,1,Cannonball_MF_reversal,2026-02-04,14:56:56.901000,trial_434_trial,222.5,grey,-999,0.5,1,208,1217,-999,-999,2,666.600000000093,13300,434,0,trial,0.8972906585924009,-0.8972906585924009
P001,1,Cannonball_MF_reversal,2026-02-04,14:56:58.917000,trial_435_trial,222.5,grey,-999,0.5,1,208,1233,-999,-999,2,416.800000000046,13250,435,0,trial,0.7921434198587157,-0.7921434198587157
P001,1,Cannonball_MF_reversal,2026-02-04,14:57:00.702000,trial_436_trial,222.5,grey,-999,0.5,1,208,1233,-999,-999,1,549.900000000139,13200,436,0,trial,0.6993176532226697,-0.6993176532226697
P001,1,Cannonball_MF_reversal,2026-02-04,14:57:02.618000,trial_437_trial,222.5,grey,-999,0.5,0,209,1216,-999,-999,1,400.100000000093,13300,437,1,trial,0.6173694912419859,0.3826305087580141
P001,1,Cannonball_MF_reversal,2026-02-04,14:57:04.366000,trial_438_trial,222.5,grey,-999,0.5,0,210,1233,-999,-999,1,616.799999999813,13400,438,1,trial,0.6622072938713859,0.3377927061286141
P001,1,Cannonball_MF_reversal,2026-02-04,14:57:06.366000,trial_439_trial,222.5,grey,-999,0.5,1,210,1233,-999,-999,2,733.399999999906,13350,439,0,trial,0.7017908669016911,-0.7017908669016911
P001,1,Cannonball_MF_reversal,2026-02-04,14:57:08.465000,trial_440_trial,222.5,grey,-999,0.5,0,211,1250,-999,-999,1,516.699999999953,13450,440,1,trial,0.6195528862466935,0.38044711375330653
P001,1,Cannonball_MF_reversal,2026-02-04,14:57:10.716000,trial_441_trial,222.5,grey,-999,0.5,0,212,1233,-999,-999,1,616.59999999986,13550,441,1,trial,0.66413483203237,0.33586516796763
P001,1,Cannonball_MF_reversal,2026-02-04,14:57:12.600000,trial_442_trial,222.5,grey,-999,0.5,1,212,1217,-999,-999,1,266.699999999953,13500,442,0,trial,0.7034925302993078,-0.7034925302993078
P001,1,Cannonball_MF_reversal,2026-02-04,14:57:14.216000,trial_443_trial,222.5,grey,-999,0.5,0,212,1233,-999,-999,1,416.5,13500,443,1,trial,0.6210551435702579,0.37894485642974207
P001,1,Cannonball_MF_reversal,2026-02-04,14:57:16.883000,trial_444_trial,222.5,grey,-999,0.5,0,213,1233,-999,-999,2,50.0,13600,444,1,trial,0.6654610502899666,0.3345389497100334
P001,1,Cannonball_MF_reversal,2026-02-04,14:57:18.250000,trial_445_trial,222.5,grey,-999,0.5,0,214,1233,-999,-999,2,583.199999999953,13700,445,1,trial,0.7046633382821967,0.29533666171780326
P001,1,Cannonball_MF_reversal,2026-02-04,14:57:20.117000,trial_446_trial,222.5,grey,-999,0.5,0,214,1233,-999,-999,1,583.300000000046,13700,446,1,trial,0.7392717833596996,0.26072821664030044
P001,1,Cannonball_MF_reversal,2026-02-04,14:57:22.964000,trial_447_trial,222.5,grey,-999,0.5,1,214,1233,-999,-999,1,2483.29999999981,13650,447,0,trial,0.7698247059574806,-0.7698247059574806
P001,1,Cannonball_MF_reversal,2026-02-04,14:57:26.813000,trial_448_trial,222.5,grey,-999,0.5,0,215,1217,-999,-999,1,500.0,13750,448,1,trial,0.6796143138562408,0.3203856861437592
P001,1,Cannonball_MF_reversal,2026-02-04,14:57:28.714000,trial_449_trial,222.5,grey,-999,0.5,1,215,1233,-999,-999,2,583.399999999906,13700,449,0,trial,0.7171580795304093,-0.7171580795304093
P001,1,Cannonball_MF_reversal,2026-02-04,14:57:30.663000,trial_450_trial,222.5,grey,-999,0.5,1,215,1216,-999,-999,2,683.699999999953,13650,450,0,trial,0.633119322327177,-0.633119322327177
P001,1,Cannonball_MF_reversal,2026-02-04,14:57:32.698000,trial_451_trial,222.5,grey,-999,0.5,0,216,1230,-999,-999,1,419.900000000139,13750,451,1,trial,0.5589284813837578,0.44107151861624216
P001,1,Cannonball_MF_reversal,2026-02-04,14:57:34.399000,trial_452_trial,222.5,grey,-999,0.5,0,217,1233,-999,-999,1,649.900000000139,13850,452,1,trial,0.6106145786616727,0.3893854213383273
P001,1,Cannonball_MF_reversal,2026-02-04,14:57:36.417000,trial_453_trial,222.5,grey,-999,0.5,0,217,1233,-999,-999,1,500.199999999953,13850,453,1,trial,0.6562439424189033,0.34375605758109673
P001,1,Cannonball_MF_reversal,2026-02-04,14:57:39.148000,trial_454_trial,222.5,grey,-999,0.5,1,217,1233,-999,-999,1,1483.30000000004,13800,454,0,trial,0.6965263190451477,-0.6965263190451477
P001,1,Cannonball_MF_reversal,2026-02-04,14:57:41.996000,trial_455_trial,222.5,grey,-999,0.5,0,218,1250,-999,-999,1,450.0,13900,455,1,trial,0.614905254062899,0.385094745937101
P001,1,Cannonball_MF_reversal,2026-02-04,14:57:44.182000,trial_456_trial,222.5,grey,-999,0.5,1,218,1216,-999,-999,2,550.0,13850,456,0,trial,0.6600318234731459,-0.6600318234731459
P001,1,Cannonball_MF_reversal,2026-02-04,14:57:46.081000,trial_457_trial,222.5,grey,-999,0.5,0,219,1233,-999,-999,1,649.900000000139,13950,457,1,trial,0.5826872940834936,0.4173127059165064
P001,1,Cannonball_MF_reversal,2026-02-04,14:57:48.146000,trial_458_trial,222.5,grey,-999,0.5,0,219,1217,-999,-999,1,533.400000000139,13950,458,1,trial,0.6315892616849812,0.3684107383150188
P001,1,Cannonball_MF_reversal,2026-02-04,14:57:50.945000,trial_459_trial,222.5,grey,-999,0.5,1,219,1216,-999,-999,1,1416.69999999995,13900,459,0,trial,0.6747607485189472,-0.6747607485189472
P001,1,Cannonball_MF_reversal,2026-02-04,14:57:53.712000,trial_460_trial,235.0,grey,-999,0.5,0,220,1233,-999,-999,1,500.0,14000,460,1,trial,0.5956902390544427,0.40430976094555726
P001,1,Cannonball_MF_reversal,2026-02-04,14:57:55.613000,trial_461_trial,235.0,grey,-999,0.5,0,221,1233,-999,-999,1,583.199999999953,14100,461,1,trial,0.6430684821570638,0.3569315178429362
P001,1,Cannonball_MF_reversal,2026-02-04,14:57:57.480000,trial_462_trial,235.0,grey,-999,0.5,0,221,1233,-999,-999,1,683.299999999813,14100,462,1,trial,0.6848947991467921,0.3151052008532079
P001,1,Cannonball_MF_reversal,2026-02-04,14:58:00.347000,trial_463_trial,235.0,grey,-999,0.5,0,221,1217,-999,-999,1,216.699999999953,14100,463,1,trial,0.721819781551394,0.27818021844860596
P001,1,Cannonball_MF_reversal,2026-02-04,14:58:02.765000,trial_464_trial,235.0,grey,-999,0.5,0,221,1217,-999,-999,1,1766.59999999986,14100,464,1,trial,0.7544177826117073,0.24558221738829267
P001,1,Cannonball_MF_reversal,2026-02-04,14:58:06.711000,trial_465_trial,235.0,grey,-999,0.5,0,221,1233,-999,-999,1,1766.5,14100,465,1,trial,0.7831958511151537,0.21680414888484634
P001,1,Cannonball_MF_reversal,2026-02-04,14:58:10.665000,trial_466_trial,235.0,grey,-999,0.5,0,222,1233,-999,-999,1,83.3999999999068,14200,466,1,trial,0.8086016183355653,0.19139838166443468
P001,1,Cannonball_MF_reversal,2026-02-04,14:58:12.413000,trial_467_trial,235.0,grey,-999,0.5,0,223,1234,-999,-999,1,549.899999999906,14300,467,1,trial,0.8310302607575001,0.16896973924249992
P001,1,Cannonball_MF_reversal,2026-02-04,14:58:14.231000,trial_468_trial,235.0,grey,-999,0.5,1,223,1233,-999,-999,1,100.100000000093,14250,468,0,trial,0.8508306468874199,-0.8508306468874199
P001,1,Cannonball_MF_reversal,2026-02-04,14:58:15.696000,trial_469_trial,235.0,grey,-999,0.5,1,223,1250,-999,-999,1,533.5,14200,469,0,trial,0.7511277331286285,-0.7511277331286285
P001,1,Cannonball_MF_reversal,2026-02-04,14:58:17.612000,trial_470_trial,235.0,grey,-999,0.5,1,223,1250,-999,-999,1,616.5,14150,470,0,trial,0.6631083089671603,-0.6631083089671603
P001,1,Cannonball_MF_reversal,2026-02-04,14:58:19.615000,trial_471_trial,235.0,grey,-999,0.5,1,223,1233,-999,-999,2,666.59999999986,14100,471,0,trial,0.585403267683617,-0.585403267683617
P001,1,Cannonball_MF_reversal,2026-02-04,14:58:21.647000,trial_472_trial,235.0,grey,-999,0.5,1,223,1233,-999,-999,2,849.799999999813,14050,472,0,trial,0.5168039386332409,-0.5168039386332409
P001,1,Cannonball_MF_reversal,2026-02-04,14:58:23.860000,trial_473_trial,235.0,grey,-999,0.5,0,223,1217,-999,-999,2,416.700000000186,14050,473,1,trial,0.4562432868604661,0.5437567131395339
P001,1,Cannonball_MF_reversal,2026-02-04,14:58:26.461000,trial_474_trial,235.0,grey,-999,0.5,1,223,1217,-999,-999,2,283.199999999953,14000,474,0,trial,0.5199623464338907,-0.5199623464338907
P001,1,Cannonball_MF_reversal,2026-02-04,14:58:28.094000,trial_475_trial,220.0,grey,-999,0.5,1,223,1233,-999,-999,1,649.899999999906,13950,475,0,trial,0.4590315828630568,-0.4590315828630568
P001,1,Cannonball_MF_reversal,2026-02-04,14:58:30.113000,trial_476_trial,220.0,grey,-999,0.5,1,223,1233,-999,-999,1,516.400000000139,13900,476,0,trial,0.4052408708263139,-0.4052408708263139
P001,1,Cannonball_MF_reversal,2026-02-04,14:58:31.994000,trial_477_trial,220.0,grey,-999,0.5,1,223,1250,-999,-999,2,733.400000000139,13850,477,0,trial,0.35775351744601225,-0.35775351744601225
P001,1,Cannonball_MF_reversal,2026-02-04,14:58:34.110000,trial_478_trial,220.0,grey,-999,0.5,1,223,1217,-999,-999,2,516.600000000093,13800,478,0,trial,0.3158308760516153,-0.3158308760516153
P001,1,Cannonball_MF_reversal,2026-02-04,14:58:35.977000,trial_479_trial,220.0,grey,-999,0.5,1,223,1250,-999,-999,1,533.300000000046,13750,479,0,trial,0.2788208568280079,-0.2788208568280079
P001,1,Cannonball_MF_reversal,2026-02-04,14:58:37.894000,trial_480_trial,220.0,grey,-999,0.5,1,223,1217,-999,-999,1,700.0,13700,480,0,trial,0.24614778382085567,-0.24614778382085567
P001,1,Cannonball_MF_reversal,2026-02-04,14:58:39.945000,trial_481_trial,220.0,grey,-999,0.5,0,224,1217,-999,-999,1,549.899999999906,13800,481,1,trial,0.2173034405288166,0.7826965594711834
P001,1,Cannonball_MF_reversal,2026-02-04,14:58:42.244000,trial_482_trial,220.0,grey,-999,0.5,0,225,1250,-999,-999,1,583.199999999953,13900,482,1,trial,0.30902219543467263,0.6909778045653274
P001,1,Cannonball_MF_reversal,2026-02-04,14:58:44.213000,trial_483_trial,232.5,grey,-999,0.5,0,226,1217,-999,-999,1,632.300000000046,14000,483,1,trial,0.3899930686746579,0.6100069313253421
P001,1,Cannonball_MF_reversal,2026-02-04,14:58:46.209000,trial_484_trial,232.5,grey,-999,0.5,0,226,1217,-999,-999,1,583.300000000046,14000,484,1,trial,0.4614755295952776,0.5385244704047224
P001,1,Cannonball_MF_reversal,2026-02-04,14:58:49.026000,trial_485_trial,217.5,grey,-999,0.5,1,226,1250,-999,-999,1,100.0,13950,485,0,trial,0.5245814591080228,-0.5245814591080228
P001,1,Cannonball_MF_reversal,2026-02-04,14:58:50.512000,trial_486_trial,230.0,grey,-999,0.5,0,227,1233,-999,-999,1,450.0,14050,486,1,trial,0.4631094139151929,0.5368905860848071
P001,1,Cannonball_MF_reversal,2026-02-04,14:58:52.278000,trial_487_trial,230.0,grey,-999,0.5,1,227,1217,-999,-999,1,599.800000000046,14000,487,0,trial,0.5260238799116246,-0.5260238799116246
P001,1,Cannonball_MF_reversal,2026-02-04,14:58:54.225000,trial_488_trial,215.0,grey,-999,0.5,1,227,1233,-999,-999,1,650.0,13950,488,0,trial,0.46438280747757865,-0.46438280747757865
P001,1,Cannonball_MF_reversal,2026-02-04,14:58:56.244000,trial_489_trial,215.0,grey,-999,0.5,0,227,1217,-999,-999,1,366.600000000093,13950,489,1,trial,0.4099650227229013,0.5900349772770987
P001,1,Cannonball_MF_reversal,2026-02-04,14:58:58.878000,trial_490_trial,227.5,grey,-999,0.5,0,228,1233,-999,-999,2,166.699999999953,14050,490,1,trial,0.4791071095404594,0.5208928904595407
P001,1,Cannonball_MF_reversal,2026-02-04,14:59:00.399000,trial_491_trial,227.5,grey,-999,0.5,0,228,1233,-999,-999,2,566.600000000093,14050,491,1,trial,0.5401469170803576,0.45985308291964244
P001,1,Cannonball_MF_reversal,2026-02-04,14:59:03.144000,trial_492_trial,227.5,grey,-999,0.5,1,228,1233,-999,-999,2,149.899999999906,14000,492,0,trial,0.5940338949833974,-0.5940338949833974
P001,1,Cannonball_MF_reversal,2026-02-04,14:59:04.660000,trial_493_trial,227.5,grey,-999,0.5,0,228,1250,-999,-999,1,583.399999999906,14000,493,1,trial,0.5244232028697582,0.4755767971302418
P001,1,Cannonball_MF_reversal,2026-02-04,14:59:07.459000,trial_494_trial,212.5,grey,-999,0.5,1,228,1233,-999,-999,1,1266.69999999995,13950,494,0,trial,0.5801527332568234,-0.5801527332568234
P001,1,Cannonball_MF_reversal,2026-02-04,14:59:10.093000,trial_495_trial,212.5,grey,-999,0.5,1,228,1217,-999,-999,2,500.100000000093,13900,495,0,trial,0.5121686777430287,-0.5121686777430287
P001,1,Cannonball_MF_reversal,2026-02-04,14:59:11.947000,trial_496_trial,225.0,grey,-999,0.5,0,229,1233,-999,-999,2,399.900000000139,14000,496,1,trial,0.4521511998891494,0.5478488001108506
P001,1,Cannonball_MF_reversal,2026-02-04,14:59:13.626000,trial_497_trial,210.0,grey,-999,0.5,1,229,1233,-999,-999,2,633.300000000046,13950,497,0,trial,0.5163497826154919,-0.5163497826154919
P001,1,Cannonball_MF_reversal,2026-02-04,14:59:15.626000,trial_498_trial,210.0,grey,-999,0.5,1,229,1233,-999,-999,2,600.0,13900,498,0,trial,0.45584235022125774,-0.45584235022125774
P001,1,Cannonball_MF_reversal,2026-02-04,14:59:17.593000,trial_499_trial,210.0,grey,-999,0.5,1,229,1250,-999,-999,1,633.199999999953,13850,499,0,trial,0.4024253621308786,-0.4024253621308786
P001,1,Cannonball_MF_reversal,2026-02-04,14:59:19.608000,trial_500_trial,210.0,grey,-999,0.5,1,229,1250,-999,-999,1,433.399999999906,13800,500,0,trial,0.3552679385922852,-0.3552679385922852
P001,1,Cannonball_MF_reversal,2026-02-04,14:59:21.426000,trial_501_trial,210.0,grey,-999,0.5,1,229,1234,-999,-999,1,0.0,13750,501,0,trial,0.3136365648608485,-0.3136365648608485
P001,1,Cannonball_MF_reversal,2026-02-04,14:59:22.793000,trial_502_trial,210.0,grey,-999,0.5,0,230,1217,-999,-999,2,166.700000000186,13850,502,1,trial,0.27688368167272986,0.7231163183272702
P001,1,Cannonball_MF_reversal,2026-02-04,14:59:24.243000,trial_503_trial,210.0,grey,-999,0.5,1,230,1217,-999,-999,2,300.199999999953,13800,503,0,trial,0.361620643355421,-0.361620643355421
P001,1,Cannonball_MF_reversal,2026-02-04,14:59:25.893000,trial_504_trial,210.0,grey,-999,0.5,0,231,1233,-999,-999,1,616.5,13900,504,1,trial,0.3192448404271152,0.6807551595728848
P001,1,Cannonball_MF_reversal,2026-02-04,14:59:27.813000,trial_505_trial,222.5,grey,-999,0.5,0,232,1233,-999,-999,1,583.300000000046,14000,505,1,trial,0.39901779314578767,0.6009822068542123
P001,1,Cannonball_MF_reversal,2026-02-04,14:59:29.878000,trial_506_trial,222.5,grey,-999,0.5,0,233,1233,-999,-999,1,583.300000000046,14100,506,1,trial,0.4694427095022411,0.5305572904977589
P001,1,Cannonball_MF_reversal,2026-02-04,14:59:31.774000,trial_507_trial,222.5,grey,-999,0.5,0,233,1250,-999,-999,1,616.59999999986,14100,507,1,trial,0.5316150207278797,0.4683849792721203
P001,1,Cannonball_MF_reversal,2026-02-04,14:59:34.607000,trial_508_trial,222.5,grey,-999,0.5,0,233,1217,-999,-999,1,233.300000000046,14100,508,1,trial,0.5865017921025605,0.4134982078974395
P001,1,Cannonball_MF_reversal,2026-02-04,14:59:37.076000,trial_509_trial,222.5,grey,-999,0.5,0,233,1216,-999,-999,1,866.800000000046,14100,509,1,trial,0.6349567652658253,0.36504323473417466
P001,1,Cannonball_MF_reversal,2026-02-04,14:59:40.125000,trial_510_trial,222.5,grey,-999,0.5,0,234,1250,-999,-999,1,583.300000000046,14200,510,1,trial,0.6777336378245162,0.32226636217548377
P001,1,Cannonball_MF_reversal,2026-02-04,14:59:42.111000,trial_511_trial,222.5,grey,-999,0.5,0,234,1233,-999,-999,1,1099.8999999999,14200,511,1,trial,0.7154977868157234,0.2845022131842766
P001,1,Cannonball_MF_reversal,2026-02-04,14:59:45.473000,trial_512_trial,222.5,grey,-999,0.5,1,234,1233,-999,-999,1,16.6000000000931,14150,512,0,trial,0.7488366183788165,-0.7488366183788165
P001,1,Cannonball_MF_reversal,2026-02-04,14:59:46.857000,trial_513_trial,222.5,grey,-999,0.5,0,234,1250,-999,-999,1,1066.69999999995,14150,513,1,trial,0.6610856739872623,0.33891432601273774
P001,1,Cannonball_MF_reversal,2026-02-04,14:59:50.125000,trial_514_trial,222.5,grey,-999,0.5,0,234,1250,-999,-999,1,450.0,14150,514,1,trial,0.7008006818348087,0.2991993181651913
P001,1,Cannonball_MF_reversal,2026-02-04,14:59:52.858000,trial_515_trial,222.5,grey,-999,0.5,0,234,1250,-999,-999,1,2100.19999999995,14150,515,1,trial,0.7358617647011155,0.26413823529888447
P001,1,Cannonball_MF_reversal,2026-02-04,14:59:57.278000,trial_516_trial,222.5,grey,-999,0.5,0,235,1216,-999,-999,1,1664.30000000004,14250,516,1,trial,0.766814283619829,0.23318571638017105
P001,1,Cannonball_MF_reversal,2026-02-04,15:00:00.276000,trial_517_trial,222.5,grey,-999,0.5,0,236,1233,-999,-999,1,583.100000000093,14350,517,1,trial,0.7941396925658827,0.20586030743411732
P001,1,Cannonball_MF_reversal,2026-02-04,15:00:02.126000,trial_518_trial,222.5,grey,-999,0.5,0,237,1233,-999,-999,1,566.900000000139,14450,518,1,trial,0.8182630272783168,0.1817369727216832
P001,1,Cannonball_MF_reversal,2026-02-04,15:00:04.475000,trial_519_trial,222.5,grey,-999,0.5,0,238,1233,-999,-999,1,499.900000000139,14550,519,1,trial,0.8395595165201428,0.16044048347985718
P001,1,Cannonball_MF_reversal,2026-02-04,15:00:06.875000,trial_520_trial,222.5,grey,-999,0.5,0,239,1216,-999,-999,1,483.600000000093,14650,520,1,trial,0.8583604186107414,0.14163958138925858
P001,1,Cannonball_MF_reversal,2026-02-04,15:00:09.243000,trial_521_trial,222.5,grey,-999,0.5,0,240,1233,-999,-999,1,566.699999999953,14750,521,1,trial,0.8749581740157053,0.1250418259842947
P001,1,Cannonball_MF_reversal,2026-02-04,15:00:11.188000,trial_522_trial,222.5,grey,-999,0.5,1,240,1233,-999,-999,1,516.700000000186,14700,522,0,trial,0.889610954140589,-0.889610954140589
P001,1,Cannonball_MF_reversal,2026-02-04,15:00:13.072000,trial_523_trial,222.5,grey,-999,0.5,0,240,1217,-999,-999,1,616.600000000093,14700,523,1,trial,0.7853636464489426,0.21463635355105737
P001,1,Cannonball_MF_reversal,2026-02-04,15:00:15.874000,trial_524_trial,222.5,grey,-999,0.5,0,241,1234,-999,-999,1,383.0,14800,524,1,trial,0.810515384842346,0.18948461515765402
P001,1,Cannonball_MF_reversal,2026-02-04,15:00:17.972000,trial_525_trial,222.5,grey,-999,0.5,0,242,1233,-999,-999,1,666.600000000093,14900,525,1,trial,0.8327197663050898,0.16728023369491019
P001,1,Cannonball_MF_reversal,2026-02-04,15:00:19.960000,trial_526_trial,235.0,grey,-999,0.5,0,243,1217,-999,-999,1,533.399999999906,15000,526,1,trial,0.8523221710546698,0.14767782894533021
P001,1,Cannonball_MF_reversal,2026-02-04,15:00:21.913000,trial_527_trial,220.0,grey,-999,0.5,1,243,1233,-999,-999,1,599.799999999813,14950,527,0,trial,0.8696275066079742,-0.8696275066079742
P001,1,Cannonball_MF_reversal,2026-02-04,15:00:23.870000,trial_528_trial,232.5,grey,-999,0.5,0,244,1233,-999,-999,1,516.800000000046,15050,528,1,trial,0.7677219198607208,0.2322780801392792
P001,1,Cannonball_MF_reversal,2026-02-04,15:00:25.790000,trial_529_trial,232.5,grey,-999,0.5,0,245,1217,-999,-999,1,633.59999999986,15150,529,1,trial,0.7949409692413534,0.20505903075864662
P001,1,Cannonball_MF_reversal,2026-02-04,15:00:27.737000,trial_530_trial,232.5,grey,-999,0.5,0,246,1250,-999,-999,1,533.199999999953,15250,530,1,trial,0.8189704079245793,0.1810295920754207
P001,1,Cannonball_MF_reversal,2026-02-04,15:00:29.646000,trial_531_trial,232.5,grey,-999,0.5,0,247,1233,-999,-999,1,516.699999999953,15350,531,1,trial,0.8401840041584643,0.15981599584153572
P001,1,Cannonball_MF_reversal,2026-02-04,15:00:31.456000,trial_532_trial,232.5,grey,-999,0.5,0,248,1250,-999,-999,1,550.100000000093,15450,532,1,trial,0.8589117268950107,0.14108827310498928
P001,1,Cannonball_MF_reversal,2026-02-04,15:00:33.405000,trial_533_trial,232.5,grey,-999,0.5,1,248,1250,-999,-999,1,549.59999999986,15400,533,0,trial,0.8754448783244101,-0.8754448783244101
P001,1,Cannonball_MF_reversal,2026-02-04,15:00:35.338000,trial_534_trial,232.5,grey,-999,0.5,1,248,1233,-999,-999,1,466.600000000093,15350,534,0,trial,0.7728575943290986,-0.7728575943290986
P001,1,Cannonball_MF_reversal,2026-02-04,15:00:37.171000,trial_535_trial,232.5,grey,-999,0.5,0,249,1233,-999,-999,1,550.09999999986,15450,535,1,trial,0.6822917991768971,0.3177082008231029
P001,1,Cannonball_MF_reversal,2026-02-04,15:00:39.424000,trial_536_trial,232.5,grey,-999,0.5,0,250,1217,-999,-999,1,466.399999999906,15550,536,1,trial,0.7195218090067123,0.28047819099328775
P001,1,Cannonball_MF_reversal,2026-02-04,15:00:41.205000,trial_537_trial,232.5,grey,-999,0.5,0,251,1233,-999,-999,1,600.0,15650,537,1,trial,0.7523890934541257,0.24761090654587425
